time,accX,accY,accZ,wRoll,wPitch,wYaw
0.06,  -0.34381585,   0.28487599,  -9.69560697,0.01745329252,            0, 0.0872664626
0.09,       -0.43222564,        0.34381585,-9.646490419999999,                 0,     0.03490658504,      0.0872664626
0.12,       -0.10805641,         0.1964662,-9.558080629999999,    -0.05235987756,     0.05235987756,     0.12217304764
0.16,                 0,       -0.07858648,-9.666137040000001,    -0.03490658504,     0.01745329252,     0.15707963268
0.2,       -0.04911655,                 0,-9.558080629999999,    -0.01745329252,     0.01745329252,     0.15707963268
0.24,  -0.16699627,   0.13752634,   -9.5286107,            0,            0,0.12217304764
0.27,       -0.16699627,       -0.07858648,-9.558080629999999,     0.01745329252,    -0.01745329252,     0.10471975512
0.3,       -0.10805641,       -0.13752634,-9.646490419999999,     0.05235987756,    -0.01745329252,     0.06981317008
0.34,       -0.01964662,       -0.25540606,-9.666137040000001,     0.06981317008,                 0,     0.05235987756
0.37,       -0.01964662,       -0.31434592,-9.666137040000001,     0.05235987756,                 0,     0.12217304764
0.4,       -0.07858648,       -0.34381585,-9.842956620000001,     0.06981317008,                 0,     0.13962634016
0.45,        0.01964662,       -0.28487599,-9.842956620000001,     0.03490658504,                 0,     0.12217304764
0.47,   0.04911655,  -0.31434592,  -9.81348669,0.01745329252,0.03490658504, 0.0872664626
0.49,        0.01964662,       -0.16699627,-9.931366410000001,     0.01745329252,     0.03490658504,     0.01745329252
0.53,        0.22593613,       -0.04911655,-9.842956620000001,                 0,     0.06981317008,    -0.03490658504
0.56,    0.31434592,   -0.16699627,   -9.90189648,             0, 0.01745329252,-0.06981317008
0.59,    0.40275571,   -0.31434592,   -9.99030627,             0,-0.01745329252,-0.03490658504
0.63,    0.16699627,   -0.28487599,  -10.07871606,-0.01745329252,-0.06981317008,-0.03490658504
0.66,    0.04911655,    -0.1964662,   -9.96083634,-0.03490658504,-0.03490658504,-0.03490658504
0.7,       -0.01964662,        -0.1964662,-9.842956620000001,    -0.01745329252,     0.03490658504,    -0.01745329252
0.73,       -0.04911655,       -0.10805641,-9.842956620000001,    -0.03490658504,     0.06981317008,                 0
0.76,        0.07858648,                 0,-9.666137040000001,    -0.01745329252,     0.06981317008,     0.01745329252
0.79,   0.16699627,  -0.07858648,  -9.61702049,            0,0.03490658504,0.03490658504
0.83,        0.04911655,       -0.04911655,-9.558080629999999,    -0.01745329252,                 0,     0.05235987756
0.86,    0.07858648,   -0.13752634,   -9.61702049, 0.01745329252,-0.01745329252, 0.06981317008
0.9,       -0.07858648,       -0.34381585,-9.754546830000001,     0.03490658504,    -0.03490658504,      0.0872664626
0.93,  -0.13752634,  -0.40275571,  -9.87242655,            0,            0,0.10471975512
0.96,  -0.07858648,  -0.52063543,  -9.96083634,            0,            0,0.05235987756
1,    0.22593613,    -0.4911655,   -9.90189648,-0.03490658504,             0,             0
1.03,         0.4911655,        -0.4911655,-9.725076899999999,                 0,                 0,    -0.03490658504
1.07, 0.40275571,-0.37328578,-9.69560697,          0,          0,          0
1.11,        0.46169557,        -0.1964662,-9.725076899999999,     0.06981317008,    -0.05235987756,                 0
1.14,        0.16699627,       -0.31434592,-9.725076899999999,      0.1745329252,    -0.10471975512,                 0
1.18,   -0.31434592,   -0.13752634,   -9.69560697, 0.15707963268,-0.05235987756, 0.01745329252
1.21,       -0.28487599,       -0.01964662,-9.842956620000001,     0.12217304764,                 0,     0.03490658504
1.25,       -0.28487599,        0.04911655,-9.754546830000001,     0.03490658504,                 0,     0.05235987756
1.27,  -0.22593613,   0.22593613,  -9.78401676,0.01745329252,            0,0.03490658504
1.3,   -0.10805641,    0.31434592,   -9.58755056, 0.03490658504,-0.03490658504, 0.05235987756
1.34,       -0.31434592,        0.25540606,-9.666137040000001,     0.06981317008,    -0.06981317008,     0.05235987756
1.38,       -0.40275571,         0.1964662,-9.666137040000001,      0.0872664626,     -0.0872664626,     0.06981317008
1.41,       -0.37328578,        0.13752634,-9.646490419999999,     0.06981317008,    -0.05235987756,      0.0872664626
1.44,   -0.62869184,    0.10805641,   -9.87242655, 0.03490658504,-0.05235987756,  0.0872664626
1.47,       -0.65816177,        0.31434592,-9.754546830000001,                 0,    -0.01745329252,     0.06981317008
1.5,   -0.71710163,    0.25540606,   -9.81348669, 0.01745329252,-0.06981317008,  0.0872664626
1.54,       -0.62869184,        0.34381585,-9.725076899999999,     0.05235987756,    -0.05235987756,      0.0872664626
1.57,       -0.56975198,        0.46169557,-9.666137040000001,     0.06981317008,    -0.03490658504,     0.05235987756
1.6,       -0.56975198,        0.37328578,-9.754546830000001,     0.05235987756,    -0.06981317008,     0.05235987756
1.63,   -0.56975198,    0.34381585,   -9.90189648, 0.06981317008,-0.06981317008,             0
1.66,       -0.56975198,        0.13752634,-9.725076899999999,     0.06981317008,    -0.03490658504,                 0
1.7,   -0.71710163,     0.1964662,   -9.90189648, 0.03490658504,-0.03490658504,-0.03490658504
1.73,   -0.62869184,   -0.07858648,   -10.0197762, 0.03490658504,-0.06981317008,-0.06981317008
1.77,   -0.46169557,   -0.13752634,   -9.87242655,-0.03490658504,-0.05235987756,-0.06981317008
1.81,   -0.46169557,   -0.07858648,   -10.0197762,-0.06981317008,-0.06981317008,-0.03490658504
1.84,        -0.4911655,                 0,-9.931366410000001,    -0.03490658504,    -0.06981317008,    -0.05235987756
1.88,        -0.4911655,       -0.04911655,-9.725076899999999,    -0.01745329252,    -0.03490658504,                 0
1.91,   -0.55010536,   -0.07858648,   -9.61702049, 0.03490658504,-0.01745329252,-0.06981317008
1.95,       -0.56975198,       -0.01964662,-9.646490419999999,     0.10471975512,                 0,    -0.13962634016
1.98,        -0.6876317,       -0.22593613,-9.842956620000001,     0.12217304764,    -0.01745329252,     -0.1745329252
2.02,   -0.80551142,   -0.43222564,   -9.96083634,  0.0872664626,-0.03490658504, -0.1745329252
2.05,   -0.71710163,   -0.37328578,   -9.78401676, 0.06981317008,             0,-0.19198621772
2.07,       -0.46169557,       -0.13752634,-9.754546830000001,                 0,    -0.01745329252,    -0.19198621772
2.11,   -0.43222564,    0.10805641,   -9.87242655,-0.03490658504, -0.0872664626,-0.20943951024
2.14,   -0.65816177,     0.1964662,   -9.69560697,-0.03490658504,-0.13962634016,-0.29670597284
2.18,       -0.80551142,        0.22593613,-9.666137040000001,    -0.05235987756,    -0.13962634016,    -0.29670597284
2.21,       -0.80551142,        0.01964662,-9.725076899999999,    -0.01745329252,    -0.13962634016,     -0.3490658504
2.25,   -0.77604149,   -0.10805641,   -9.58755056,-0.01745329252, -0.0872664626,-0.41887902048
2.28,       -0.71710163,       -0.10805641,-9.666137040000001,    -0.03490658504,    -0.05235987756,    -0.47123889804
2.31,   -0.56975198,   -0.31434592,   -9.69560697,-0.05235987756,-0.06981317008,-0.48869219056
2.35,    -0.4911655,   -0.37328578,   -9.58755056,-0.05235987756,-0.06981317008,-0.50614548308
2.39,   -0.62869184,   -0.52063543,   -9.81348669,-0.01745329252,-0.13962634016,-0.48869219056
2.42,   -0.71710163,   -0.40275571,   -9.69560697,             0,-0.15707963268,-0.48869219056
2.46,   -0.89392121,   -0.22593613,   -9.78401676,             0,-0.12217304764,-0.50614548308
2.49,       -1.10021072,       -0.01964662,-9.666137040000001,    -0.03490658504,     -0.0872664626,    -0.62831853072
2.52,   -1.04127086,    -0.1964662,   -9.78401676,-0.06981317008,-0.13962634016, -0.6981317008
2.56,   -0.95286107,   -0.43222564,   -9.90189648,-0.10471975512,-0.15707963268,-0.66322511576
2.59,         -0.982331,        0.04911655,-9.469670839999999,    -0.15707963268,    -0.15707963268,    -0.62831853072
2.62,       -1.20826713,        0.13752634,-9.725076899999999,    -0.15707963268,    -0.19198621772,    -0.59341194568
2.66,   -1.23773706,    0.25540606,   -9.69560697, -0.0872664626, -0.1745329252,-0.59341194568
2.7,        -1.41455664,         0.43222564, -9.666137040000001,     -0.10471975512,     -0.15707963268,-0.5759586531600001
2.73,   -1.41455664,    0.40275571,   -9.78401676, -0.0872664626,-0.10471975512,-0.47123889804
2.76,       -1.50296643,         0.4911655,-9.931366410000001,    -0.03490658504,    -0.10471975512,    -0.40142572796
2.8,       -1.67978601,        0.77604149,-9.725076899999999,    -0.01745329252,    -0.01745329252,     -0.3490658504
2.83,       -1.84678228,        0.83498135,-9.842956620000001,                 0,     0.01745329252,    -0.31415926536
2.87,   -1.81731235,    0.71710163,   -10.0197762,             0, 0.03490658504,-0.24434609528
2.91,   -1.99413193,    0.59922191,  -10.07871606,-0.05235987756, 0.06981317008,-0.10471975512
2.94,   -1.78784242,    0.77604149,   -10.0197762,-0.01745329252, 0.06981317008,-0.10471975512
2.97,   -1.67978601,     0.6876317,   -9.90189648, 0.03490658504,  0.0872664626,-0.10471975512
3,   -1.56190629,    0.74657156,   -9.99030627,             0, 0.12217304764,-0.06981317008
3.04,   -1.53243636,    0.56975198,   -9.90189648,             0,  0.0872664626,-0.06981317008
3.07,       -1.59137622,        0.52063543,-9.931366410000001,                 0,     0.10471975512,    -0.03490658504
3.1,   -1.41455664,    0.43222564,   -9.78401676,-0.03490658504,  0.0872664626,-0.01745329252
3.14,   -1.32614685,    0.25540606,   -9.58755056,-0.01745329252, 0.06981317008,             0
3.17,       -1.32614685,        0.46169557,-9.666137040000001,    -0.15707963268,     0.03490658504,     0.03490658504
3.21,       -1.29667692,        0.59922191,-9.646490419999999,     -0.1745329252,                 0,                 0
3.24,       -1.44402657,        0.59922191,-9.754546830000001,    -0.10471975512,    -0.01745329252,     0.01745329252
3.27,       -1.62084615,        0.59922191,-9.931366410000001,    -0.12217304764,    -0.03490658504,      0.0872664626
3.31,   -1.29667692,    0.77604149,   -9.58755056,-0.10471975512,             0, 0.12217304764
3.35,        -1.1787972,        0.92339114,-9.754546830000001,                 0,     0.01745329252,     0.13962634016
3.38,  -1.35561678,   0.74657156, -10.04924613,0.10471975512,0.05235987756,0.13962634016
3.41,  -1.50296643,    0.6876317, -10.13765592,0.06981317008, 0.0872664626, 0.1745329252
3.45,  -1.29667692,   0.62869184, -10.10818599,            0,0.15707963268,0.13962634016
3.49,       -1.29667692,        0.65816177,-9.931366410000001,    -0.01745329252,     0.22689280276,     0.13962634016
3.52,   -1.26720699,    0.65816177,  -10.10818599,-0.03490658504, 0.24434609528, 0.19198621772
3.56,  -0.95286107,   0.46169557, -10.16712585,-0.0872664626, 0.2617993878,0.31415926536
3.59,   -0.92339114,    0.59922191,   -10.0197762,-0.06981317008,  0.2617993878, 0.38397243544
3.62,   -1.04127086,    0.52063543,  -10.16712585,-0.03490658504,  0.2617993878, 0.40142572796
3.66,   -1.12968065,    0.46169557,   -10.0197762,-0.06981317008, 0.36651914292, 0.40142572796
3.69,       -1.10021072,        0.65816177,-9.754546830000001,    -0.10471975512,     0.40142572796,     0.41887902048
3.73,       -0.65816177,        0.71710163,-9.666137040000001,    -0.05235987756,     0.38397243544,     0.36651914292
3.76,       -0.10805641,        0.55010536,-9.646490419999999,    -0.05235987756,     0.31415926536,     0.40142572796
3.8,   -0.04911655,    0.43222564,   -9.69560697,-0.06981317008, 0.22689280276, 0.48869219056
3.83,       -0.01964662,         0.6876317,-9.558080629999999,    -0.05235987756,     0.20943951024,       0.436332313
3.86,        0.16699627,         0.6876317,-9.558080629999999,    -0.06981317008,      0.1745329252,     0.36651914292
3.9,        0.22593613,        0.59922191,-9.725076899999999,    -0.12217304764,     0.13962634016,     0.33161255788
3.94,    0.28487599,    0.86445128,   -9.35179112,-0.15707963268, 0.10471975512, 0.36651914292
3.97,    0.56975198,    0.74657156,   -9.44020091,-0.12217304764,-0.01745329252, 0.41887902048
4,    0.59922191,    0.31434592,   -9.35179112,-0.03490658504,-0.15707963268, 0.40142572796
4.04,        0.34381585,        0.31434592,-9.204441470000001,     0.01745329252,     -0.1745329252,       0.436332313
4.08,        0.10805641,        0.40275571,-9.292851260000001,     0.06981317008,    -0.13962634016,     0.41887902048
4.11,   -0.07858648,    0.31434592,   -9.58755056,  0.1745329252,-0.12217304764, 0.29670597284
4.14,   -0.22593613,    0.22593613,    -9.5286107, 0.19198621772,-0.10471975512, 0.20943951024
4.17,  -0.25540606,   0.16699627,  -9.49914077,0.10471975512,-0.0872664626,0.22689280276
4.2,    -0.1964662,    0.01964662,   -9.35179112, 0.13962634016,-0.06981317008, 0.20943951024
4.24,       -0.07858648,       -0.31434592,-9.725076899999999,     0.12217304764,     -0.0872664626,     0.15707963268
4.27,   -0.22593613,   -0.46169557,   -9.90189648,  0.0872664626,-0.10471975512, 0.10471975512
4.31,   -0.55010536,   -0.46169557,   -9.96083634,             0,-0.10471975512, 0.06981317008
4.34,       -0.46169557,       -0.28487599,-9.842956620000001,     -0.0872664626,    -0.06981317008,                 0
4.38,       -0.28487599,       -0.25540606,-9.931366410000001,    -0.13962634016,    -0.06981317008,    -0.05235987756
4.41,   -0.16699627,   -0.37328578,   -9.87242655,-0.10471975512,-0.10471975512, -0.0872664626
4.45,    -0.1964662,   -0.28487599,   -9.81348669, -0.1745329252,-0.13962634016,             0
4.48,   -0.31434592,   -0.16699627,   -9.87242655,-0.13962634016, -0.1745329252,             0
4.52,       -0.52063543,        0.01964662,-9.725076899999999,    -0.06981317008,    -0.12217304764,    -0.01745329252
4.55,   -0.43222564,   -0.01964662,   -9.87242655,-0.03490658504, -0.0872664626,-0.05235987756
4.59,   -0.34381585,    -0.1964662,   -9.87242655, 0.03490658504,-0.06981317008,-0.06981317008
4.62,       -0.37328578,       -0.13752634,-9.842956620000001,     0.03490658504,    -0.03490658504,    -0.05235987756
4.65,   -0.40275571,   -0.07858648,  -10.04924613, 0.01745329252,-0.06981317008,-0.10471975512
4.69,   -0.37328578,   -0.25540606,   -10.0197762,-0.01745329252, -0.0872664626,-0.12217304764
4.72,       -0.34381585,        -0.1964662,-9.842956620000001,     -0.0872664626,    -0.06981317008,    -0.05235987756
4.77,   -0.31434592,    0.01964662,   -9.81348669, -0.0872664626,-0.05235987756,-0.03490658504
4.78,   -0.55010536,    0.07858648,   -9.78401676,-0.03490658504,-0.10471975512, 0.05235987756
4.82,       -0.89392121,         0.1964662,-9.754546830000001,                 0,    -0.13962634016,     0.03490658504
4.86,  -0.92339114,    0.1964662,  -9.58755056,0.03490658504,-0.0872664626, 0.0872664626
4.89,   -0.86445128,   -0.10805641,   -9.90189648, 0.03490658504,-0.10471975512, 0.24434609528
4.92,   -0.83498135,   -0.10805641,  -10.10818599, 0.03490658504,-0.19198621772, 0.36651914292
4.96,       -1.20826713,        0.31434592,-9.931366410000001,      0.0872664626,    -0.15707963268,      0.2617993878
4.99,   -1.56190629,    0.28487599,   -9.78401676, 0.01745329252,-0.06981317008, 0.15707963268
5.03,   -1.38508671,    0.04911655,   -9.96083634,-0.01745329252, 0.01745329252, 0.13962634016
5.07,   -1.53243636,    0.25540606,   -9.87242655,-0.03490658504, 0.06981317008,  0.0872664626
5.1,   -1.23773706,   -0.01964662,   -9.90189648,-0.01745329252, 0.10471975512, 0.03490658504
5.13,       -1.23773706,       -0.25540606,-9.754546830000001,     -0.0872664626,      0.0872664626,                 0
5.17,       -1.41455664,       -0.22593613,-9.754546830000001,    -0.12217304764,     0.06981317008,    -0.03490658504
5.2,       -1.29667692,       -0.40275571,-9.666137040000001,    -0.13962634016,     0.05235987756,    -0.03490658504
5.24,  -1.04127086,  -0.46169557,  -9.49914077,-0.1745329252,            0,0.01745329252
5.27,       -0.83498135,       -0.43222564,-9.558080629999999,    -0.12217304764,                 0,     0.01745329252
5.3,  -0.80551142,  -0.01964662,   -9.5286107,-0.0872664626,0.01745329252,0.05235987756
5.34,       -0.77604149,         0.1964662,-9.646490419999999,    -0.06981317008,    -0.05235987756,     0.12217304764
5.38,       -0.83498135,        0.25540606,-9.754546830000001,    -0.01745329252,    -0.19198621772,     0.20943951024
5.41,   -1.01180093,     0.1964662,   -9.78401676, 0.03490658504,-0.31415926536, 0.29670597284
5.45,   -1.10021072,    0.01964662,   -9.81348669, 0.13962634016,-0.33161255788, 0.33161255788
5.48,   -1.26720699,    0.28487599,   -9.87242655,  0.1745329252,-0.15707963268, 0.31415926536
5.52,   -1.29667692,    0.34381585,   -10.0197762,  0.1745329252,-0.03490658504, 0.19198621772
5.55,  -1.01180093,   0.22593613, -10.10818599,0.13962634016,            0,0.12217304764
5.59,  -0.74657156,   0.22593613,  -9.87242655,0.05235987756,            0, 0.0872664626
5.62,       -0.80551142,        0.65816177,-9.842956620000001,                 0,                 0,      0.0872664626
5.66,       -0.92339114,        0.74657156,-9.725076899999999,     0.06981317008,                 0,     0.06981317008
5.69,   -0.95286107,    0.65816177,   -9.69560697, 0.10471975512,-0.01745329252, 0.12217304764
5.73,   -1.01180093,    0.46169557,  -10.16712585, 0.10471975512,-0.10471975512, 0.15707963268
5.76,   -0.89392121,     0.4911655,  -10.07871606, 0.12217304764,-0.10471975512, 0.05235987756
5.79,       -0.74657156,        0.80551142,-9.931366410000001,                 0,    -0.05235987756,    -0.03490658504
5.83,   -0.71710163,    0.83498135,   -10.0197762,-0.05235987756,-0.01745329252,-0.12217304764
5.87,       -0.77604149,        0.77604149,-9.931366410000001,    -0.10471975512,    -0.03490658504,    -0.12217304764
5.9,   -0.80551142,    0.89392121,   -9.87242655,-0.12217304764,-0.03490658504,-0.12217304764
5.94,   -0.80551142,    0.86445128,   -9.78401676,-0.06981317008, -0.0872664626,-0.15707963268
5.97,       -1.07074079,        0.80551142,-9.842956620000001,    -0.10471975512,    -0.10471975512,    -0.22689280276
6,       -0.89392121,        0.62869184,-9.931366410000001,    -0.13962634016,    -0.06981317008,    -0.24434609528
6.04,   -0.89392121,    0.74657156,   -9.69560697,-0.13962634016,-0.03490658504,-0.22689280276
6.08,   -1.01180093,    0.92339114,   -9.61702049,-0.15707963268,             0,-0.24434609528
6.11,       -1.01180093,        0.77604149,-9.754546830000001,    -0.13962634016,    -0.03490658504,    -0.27925268032
6.14,   -1.26720699,    0.86445128,   -9.61702049,-0.12217304764,-0.05235987756,-0.24434609528
6.17,   -1.35561678,    1.01180093,   -9.58755056,-0.10471975512,             0, -0.2617993878
6.2,   -1.38508671,    1.04127086,   -9.78401676, -0.0872664626,             0,-0.24434609528
6.24,       -1.50296643,        1.12968065,-9.754546830000001,    -0.05235987756,                 0,     -0.1745329252
6.27,   -1.53243636,    1.32614685,   -9.49914077,-0.03490658504, 0.03490658504, -0.1745329252
6.3,       -1.59137622,        1.26720699,-9.666137040000001,                 0,     0.01745329252,     -0.1745329252
6.34,       -1.62084615,        1.35561678,-9.558080629999999,    -0.03490658504,     0.01745329252,    -0.15707963268
6.38,   -1.62084615,    1.38508671,    -9.5286107,-0.05235987756,             0,-0.15707963268
6.41,       -1.56190629,        1.29667692,-9.754546830000001,                 0,    -0.01745329252,    -0.12217304764
6.45,  -1.65031608,   1.29667692,  -9.61702049,            0,0.01745329252,-0.0872664626
6.48,       -1.75837249,        1.26720699,-9.666137040000001,                 0,     0.05235987756,    -0.10471975512
6.51,   -1.72890256,    1.12968065,   -9.78401676, 0.01745329252, 0.06981317008,-0.06981317008
6.55,   -1.65031608,    1.12968065,   -9.69560697, 0.03490658504, 0.06981317008,-0.05235987756
6.58,   -1.75837249,    1.12968065,   -9.61702049, 0.03490658504, 0.03490658504,-0.06981317008
6.62,   -1.75837249,    0.89392121,   -9.69560697, 0.03490658504, 0.05235987756,-0.06981317008
6.66,       -1.50296643,        0.83498135,-9.558080629999999,                 0,     0.06981317008,    -0.05235987756
6.69,   -1.26720699,      0.982331,   -9.58755056,-0.01745329252, 0.05235987756,-0.01745329252
6.72,        -1.1787972,        0.89392121,-9.754546830000001,                 0,     0.03490658504,    -0.03490658504
6.76,-1.07074079, 0.86445128,-9.78401676,          0,          0,          0
6.79,       -0.80551142,        0.86445128,-9.754546830000001,    -0.01745329252,    -0.03490658504,     0.06981317008
6.81,       -1.01180093,        0.89392121,-9.754546830000001,                 0,    -0.05235987756,     0.01745329252
6.86,   -1.20826713,    1.07074079,   -9.49914077,             0,-0.01745329252, 0.01745329252
6.89,   -1.41455664,    1.14932727,   -9.61702049, 0.06981317008,-0.03490658504,  0.0872664626
6.92,       -1.01180093,        0.95286107,-9.842956620000001,     0.13962634016,     -0.0872664626,     0.06981317008
6.96,   -0.83498135,    0.83498135,   -9.78401676, 0.10471975512,-0.05235987756,  0.1745329252
6.99,       -0.77604149,        1.01180093,-9.725076899999999,      0.0872664626,                 0,     0.24434609528
7.03,  -0.65816177,   1.20826713,  -9.87242655,0.13962634016,            0,0.24434609528
7.06,  -0.80551142,   0.89392121,  -9.81348669, 0.1745329252,0.01745329252,0.27925268032
7.1,  -0.89392121,   0.92339114,  -9.81348669,0.12217304764,0.05235987756,0.20943951024
7.13,  -0.95286107,    0.6876317,  -10.0197762, 0.0872664626,            0,0.19198621772
7.17,  -0.95286107,   0.59922191,  -9.87242655,0.01745329252,0.01745329252,0.19198621772
7.2,       -0.80551142,        0.59922191,-9.646490419999999,     0.01745329252,     0.05235987756,     0.22689280276
7.24,   -0.982331,   0.6876317, -9.90189648,0.0872664626,           0,0.2617993878
7.27,  -0.95286107,   0.74657156,  -9.81348669,0.10471975512,            0, 0.3490658504
7.31,  -0.80551142,    0.6876317,  -9.61702049,0.05235987756,0.05235987756,0.38397243544
7.34,       -1.14932727,        0.83498135,-9.646490419999999,     0.03490658504,     0.05235987756,     0.41887902048
7.38,       -1.07074079,        0.89392121,-9.754546830000001,     0.06981317008,      0.0872664626,     0.36651914292
7.41,       -0.86445128,        0.71710163,-9.646490419999999,      0.0872664626,     0.06981317008,     0.29670597284
7.45,       -0.86445128,        0.59922191,-9.666137040000001,     0.05235987756,     0.06981317008,     0.27925268032
7.48,       -0.77604149,        0.59922191,-9.725076899999999,                 0,     0.03490658504,      0.2617993878
7.51,       -0.71710163,        0.55010536,-9.666137040000001,    -0.03490658504,    -0.01745329252,     0.27925268032
7.55,       -0.80551142,        0.37328578,-9.725076899999999,    -0.03490658504,    -0.01745329252,     0.27925268032
7.58,   -0.80551142,    0.40275571,   -9.69560697,-0.03490658504,             0,  0.2617993878
7.62,   -0.80551142,    0.37328578,   -9.87242655,-0.05235987756,             0, 0.29670597284
7.64,   -0.83498135,    0.25540606,   -9.81348669,-0.01745329252,-0.01745329252, 0.33161255788
7.67,       -0.86445128,        0.46169557,-9.725076899999999,     0.03490658504,                 0,     0.36651914292
7.72,       -0.92339114,        0.37328578,-9.842956620000001,     0.10471975512,                 0,      0.3490658504
7.74,       -0.92339114,        0.16699627,-9.666137040000001,     0.13962634016,     0.03490658504,      0.3490658504
7.78,       -0.83498135,                 0,-9.725076899999999,     0.10471975512,     0.05235987756,     0.36651914292
7.82,       -0.74657156,       -0.16699627,-9.931366410000001,     0.05235987756,     0.01745329252,     0.40142572796
7.86,       -0.83498135,       -0.04911655,-9.931366410000001,     0.05235987756,    -0.01745329252,     0.40142572796
7.89,       -0.89392121,        0.01964662,-9.931366410000001,                 0,                 0,     0.38397243544
7.92,  -0.80551142,   0.01964662,  -9.87242655,0.01745329252,            0,0.36651914292
7.96,       -0.86445128,       -0.01964662,-9.931366410000001,     0.05235987756,     0.01745329252,     0.31415926536
7.99,       -0.77604149,       -0.01964662,-9.754546830000001,     0.03490658504,     0.06981317008,      0.3490658504
8.03,       -0.65816177,       -0.16699627,-9.842956620000001,     0.01745329252,     0.05235987756,      0.3490658504
8.06,   -0.6876317,  -0.04911655,  -9.96083634,0.01745329252,            0,0.36651914292
8.09,  -0.89392121,  -0.04911655,  -9.90189648,0.03490658504,0.01745329252,0.36651914292
8.13,       -0.89392121,                 0,-9.725076899999999,     0.03490658504,     0.06981317008,     0.36651914292
8.16,       -0.83498135,        0.04911655,-9.842956620000001,     0.05235987756,     0.10471975512,      0.3490658504
8.19,       -0.80551142,        0.04911655,-9.842956620000001,      0.0872664626,      0.0872664626,     0.31415926536
8.23,       -0.59922191,       -0.04911655,-9.754546830000001,     0.06981317008,      0.0872664626,     0.27925268032
8.26,       -0.65816177,        0.01964662,-9.725076899999999,                 0,     0.03490658504,     0.33161255788
8.29,        -0.6876317,       -0.10805641,-9.754546830000001,     0.05235987756,     0.01745329252,     0.36651914292
8.33,       -0.74657156,                 0,-9.725076899999999,      0.0872664626,     0.03490658504,     0.38397243544
8.36,       -0.65816177,        0.04911655,-9.754546830000001,     0.05235987756,     0.05235987756,     0.38397243544
8.4,  -0.65816177,   0.07858648,  -9.87242655,0.01745329252,0.03490658504, 0.3490658504
8.44,   -0.74657156,    0.22593613,   -9.87242655,-0.01745329252, 0.03490658504, 0.33161255788
8.47,   -0.62869184,    0.22593613,   -9.78401676,-0.03490658504, 0.03490658504, 0.31415926536
8.5,       -0.52063543,         0.1964662,-9.842956620000001,                 0,                 0,     0.31415926536
8.54,       -0.65816177,        0.04911655,-9.842956620000001,     0.03490658504,                 0,     0.27925268032
8.57,  -0.65816177,   0.07858648,  -9.69560697,            0,            0,0.27925268032
8.61,       -0.55010536,        0.01964662,-9.725076899999999,                 0,     0.01745329252,     0.27925268032
8.64,  -0.59922191,  -0.04911655,  -9.90189648,            0,            0,0.27925268032
8.68,   -0.65816177,    0.10805641,   -9.81348669,-0.01745329252,             0, 0.27925268032
8.71,       -0.65816177,       -0.04911655,-9.725076899999999,                 0,    -0.01745329252,      0.2617993878
8.75,       -0.56975198,       -0.10805641,-9.725076899999999,                 0,    -0.01745329252,     0.24434609528
8.78, -0.46169557,  0.01964662, -9.78401676,           0,           0,0.1745329252
8.81,    -0.4911655,   -0.04911655,   -9.81348669,-0.01745329252,-0.01745329252, 0.20943951024
8.86,       -0.52063543,       -0.16699627,-9.842956620000001,    -0.01745329252,    -0.03490658504,     0.22689280276
8.89,   -0.59922191,    0.04911655,   -9.87242655,-0.01745329252,             0, 0.29670597284
8.92,       -0.86445128,        0.28487599,-9.754546830000001,     0.01745329252,                 0,     0.27925268032
8.96,  -0.77604149,    0.1964662,  -9.87242655,0.10471975512,            0,0.19198621772
8.99,       -0.59922191,        0.22593613,-9.842956620000001,     0.03490658504,     0.03490658504,     0.15707963268
9.03,  -0.59922191,   0.04911655,  -9.69560697,            0,0.01745329252, 0.1745329252
9.06,   -0.62869184,   -0.07858648,   -9.69560697, 0.03490658504,-0.01745329252, 0.20943951024
9.09,       -0.74657156,        0.10805641,-9.646490419999999,     0.01745329252,    -0.03490658504,     0.24434609528
9.13,   -0.77604149,    0.16699627,   -9.44020091,             0,-0.03490658504, 0.20943951024
9.16,   -0.92339114,    0.10805641,   -9.58755056, 0.05235987756,-0.05235987756, 0.12217304764
9.2,   -1.01180093,    0.13752634,   -9.69560697, 0.03490658504,-0.05235987756, 0.10471975512
9.23,  -0.77604149,   0.13752634,  -9.58755056,0.01745329252,            0,0.06981317008
9.27,       -0.80551142,                 0,-9.666137040000001,     0.01745329252,                 0,     0.05235987756
9.31,       -0.83498135,        0.13752634,-9.754546830000001,                 0,    -0.01745329252,     0.03490658504
9.34,   -0.83498135,    0.04911655,   -9.90189648,             0,-0.03490658504,-0.01745329252
9.38,   -0.83498135,    0.07858648,   -9.90189648,             0,-0.01745329252,-0.05235987756
9.41,   -0.95286107,    0.22593613,   -9.87242655,-0.03490658504,-0.03490658504,-0.10471975512
9.44,   -0.77604149,             0,   -9.87242655,-0.03490658504,-0.06981317008,-0.13962634016
9.48,   -0.74657156,   -0.22593613,   -9.87242655,-0.03490658504,-0.06981317008,-0.15707963268
9.51,   -0.83498135,   -0.07858648,   -9.81348669,-0.05235987756,-0.05235987756,-0.15707963268
9.55,   -0.86445128,    0.07858648,   -9.90189648,-0.03490658504,-0.05235987756,-0.13962634016
9.58,       -0.86445128,        0.16699627,-9.931366410000001,    -0.06981317008,    -0.05235987756,    -0.15707963268
9.62,   -0.92339114,    0.25540606,   -9.90189648,-0.06981317008,-0.03490658504,-0.19198621772
9.65,       -0.80551142,        0.31434592,-9.842956620000001,                 0,    -0.01745329252,    -0.22689280276
9.69,     -0.982331,    0.37328578,   -9.78401676,-0.05235987756,             0,-0.20943951024
9.72,   -1.10021072,    0.34381585,   -9.78401676,-0.06981317008,-0.01745329252,-0.24434609528
9.76,   -0.92339114,     0.1964662,   -9.78401676,-0.01745329252,-0.03490658504, -0.2617993878
9.79,       -1.04127086,         0.1964662,-9.754546830000001,                 0,    -0.01745329252,     -0.2617993878
9.82,       -1.20826713,        0.31434592,-9.754546830000001,    -0.03490658504,    -0.01745329252,    -0.29670597284
9.85,       -1.12968065,        0.37328578,-9.754546830000001,    -0.12217304764,    -0.03490658504,     -0.3490658504
9.89,   -1.07074079,     0.1964662,   -9.78401676,-0.13962634016,-0.05235987756, -0.3490658504
9.92,       -1.04127086,        0.37328578,-9.646490419999999,    -0.12217304764,    -0.03490658504,    -0.38397243544
9.96,   -1.10021072,    0.40275571,   -9.61702049,-0.10471975512,-0.05235987756,-0.36651914292
9.99,        -1.1787972,        0.28487599,-9.725076899999999,    -0.10471975512,    -0.05235987756,    -0.31415926536
10.02,       -1.20826713,        0.40275571,-9.725076899999999,     -0.0872664626,    -0.06981317008,     -0.2617993878
10.06,       -1.32614685,         0.4911655,-9.931366410000001,    -0.03490658504,    -0.06981317008,    -0.20943951024
10.1,       -1.41455664,        0.55010536,-9.931366410000001,    -0.03490658504,    -0.03490658504,     -0.1745329252
10.13,       -1.41455664,        0.62869184,-9.842956620000001,    -0.03490658504,    -0.01745329252,    -0.15707963268
10.16,   -1.44402657,    0.62869184,  -10.04924613,-0.03490658504,             0, -0.1745329252
10.2,    -1.4734965,    0.71710163,   -9.90189648,-0.05235987756, 0.01745329252, -0.1745329252
10.23,   -1.41455664,     0.6876317,   -9.81348669,-0.05235987756, 0.05235987756,-0.15707963268
10.27,       -1.38508671,        0.71710163,-9.725076899999999,    -0.05235987756,     0.01745329252,    -0.13962634016
10.3,   -1.26720699,    0.56975198,   -9.81348669,-0.03490658504, 0.03490658504,-0.15707963268
10.34,   -1.29667692,    0.62869184,   -9.81348669,-0.05235987756, 0.03490658504,-0.13962634016
10.37,       -1.29667692,        0.77604149,-9.842956620000001,    -0.06981317008,     0.03490658504,    -0.15707963268
10.41,   -1.32614685,    0.86445128,   -9.96083634, -0.0872664626, 0.01745329252,-0.15707963268
10.45,       -1.29667692,        0.92339114,-9.931366410000001,    -0.05235987756,     0.01745329252,    -0.15707963268
10.48,  -1.12968065,   0.77604149,  -9.81348669,            0,0.06981317008,-0.1745329252
10.52,   -1.23773706,     0.6876317,   -9.87242655,-0.05235987756, 0.06981317008,-0.13962634016
10.55,   -1.20826713,    0.71710163,   -9.81348669,-0.10471975512, 0.10471975512,-0.12217304764
10.59,       -1.07074079,        0.89392121,-9.725076899999999,    -0.12217304764,     0.06981317008,    -0.12217304764
10.63,   -1.14932727,    0.92339114,   -9.78401676,-0.05235987756, 0.01745329252,-0.13962634016
10.66,       -1.23773706,        0.92339114,-9.725076899999999,     -0.0872664626,     0.03490658504,    -0.13962634016
10.69,       -1.10021072,        0.89392121,-9.646490419999999,     -0.0872664626,      0.0872664626,    -0.12217304764
10.73,   -1.12968065,      0.982331,   -9.58755056,-0.03490658504,  0.0872664626,-0.13962634016
10.76,   -1.10021072,    0.92339114,   -9.61702049,-0.03490658504, 0.06981317008,-0.12217304764
10.8,       -0.95286107,        0.86445128,-9.558080629999999,                 0,     0.05235987756,     -0.0872664626
10.83,       -0.86445128,        0.86445128,-9.469670839999999,     0.01745329252,     0.03490658504,    -0.06981317008
10.86,     -0.982331,    0.89392121,    -9.5286107,             0, 0.03490658504,-0.05235987756
10.9,       -1.07074079,        0.83498135,-9.754546830000001,     0.01745329252,                 0,    -0.06981317008
10.93,   -0.95286107,    0.65816177,   -9.58755056, 0.01745329252,             0,-0.06981317008
10.96,       -0.74657156,         0.6876317,-9.558080629999999,                 0,     0.03490658504,    -0.13962634016
11,       -0.83498135,        0.80551142,-9.646490419999999,                 0,     0.01745329252,     -0.1745329252
11.03,  -0.89392121,   0.56975198,  -9.78401676,0.01745329252,0.01745329252,-0.1745329252
11.07,       -0.86445128,        0.56975198,-9.725076899999999,     0.01745329252,     0.01745329252,    -0.19198621772
11.1,       -0.95286107,        0.71710163,-9.725076899999999,     0.03490658504,                 0,    -0.20943951024
11.13,       -1.07074079,        0.86445128,-9.646490419999999,     0.03490658504,                 0,    -0.19198621772
11.17,        -1.1787972,        1.10021072,-9.558080629999999,     0.06981317008,                 0,    -0.15707963268
11.2,   -1.20826713,    1.12968065,    -9.5286107, 0.10471975512, 0.01745329252,-0.19198621772
11.23,       -1.20826713,        1.14932727,-9.558080629999999,     0.06981317008,     0.05235987756,    -0.24434609528
11.26,   -1.1787972,    1.1787972,  -9.69560697,0.05235987756,0.03490658504,-0.2617993878
11.3,   -1.12968065,    1.12968065,   -9.81348669, 0.03490658504, 0.03490658504,-0.29670597284
11.34,    -1.1787972,    1.01180093,   -9.99030627,             0, 0.01745329252,-0.33161255788
11.37,   -1.41455664,    0.89392121,  -10.04924613,-0.05235987756,             0,-0.38397243544
11.39,   -1.62084615,    0.89392121,   -9.96083634,-0.06981317008,-0.03490658504,  -0.436332313
11.43,   -1.56190629,    0.89392121,   -9.87242655,-0.12217304764,-0.03490658504,-0.40142572796
11.47,        -1.4734965,        1.10021072,-9.725076899999999,    -0.10471975512,                 0,    -0.38397243544
11.5,       -1.50296643,        1.14932727,-9.666137040000001,    -0.06981317008,     0.03490658504,    -0.40142572796
11.54,   -1.32614685,    1.04127086,   -9.78401676,-0.05235987756, 0.06981317008, -0.3490658504
11.57,   -1.14932727,    0.89392121,   -9.69560697,-0.03490658504,  0.0872664626, -0.3490658504
11.6,       -1.29667692,          0.982331,-9.754546830000001,    -0.03490658504,     0.05235987756,    -0.41887902048
11.64,   -1.26720699,    0.83498135,   -9.78401676,-0.01745329252,-0.01745329252,-0.48869219056
11.67,   -1.04127086,    0.37328578,   -9.78401676, -0.0872664626, -0.0872664626,-0.48869219056
11.71,   -1.01180093,    0.28487599,   -9.81348669,-0.19198621772, -0.0872664626,-0.41887902048
11.75,   -0.86445128,    0.71710163,   -9.58755056,-0.19198621772,             0,-0.38397243544
11.79,   -0.65816177,    0.92339114,   -9.58755056,-0.13962634016,             0,-0.36651914292
11.82,   -0.71710163,    0.89392121,   -9.61702049,-0.01745329252,             0, -0.3490658504
11.85,   -0.71710163,    0.92339114,   -9.44020091, 0.01745329252,             0,-0.38397243544
11.88,        -0.6876317,        0.71710163,-9.558080629999999,     0.03490658504,                 0,    -0.33161255788
11.92,       -0.92339114,        0.43222564,-9.725076899999999,     0.03490658504,    -0.03490658504,     -0.2617993878
11.95,       -1.01180093,        0.37328578,-9.381261050000001,     0.03490658504,                 0,    -0.24434609528
11.98,   -0.92339114,    0.52063543,    -9.2339114, 0.03490658504, 0.03490658504,-0.24434609528
12.02,   -0.86445128,    0.59922191,   -9.32232119,  0.0872664626,             0,-0.22689280276
12.05,       -0.74657156,        0.37328578,-9.646490419999999,      0.0872664626,    -0.03490658504,    -0.20943951024
12.08,       -0.46169557,        0.46169557,-9.646490419999999,      0.0872664626,    -0.03490658504,     -0.1745329252
12.12,    -0.4911655,    0.56975198,   -9.61702049, 0.12217304764,-0.01745329252,-0.15707963268
12.15,       -0.52063543,        0.59922191,-9.754546830000001,     0.13962634016,    -0.05235987756,    -0.13962634016
12.19,       -0.62869184,        0.43222564,-9.842956620000001,     0.20943951024,    -0.13962634016,    -0.12217304764
12.22,   -1.01180093,    0.25540606,  -10.07871606, 0.22689280276,-0.13962634016,-0.06981317008
12.26,     -0.982331,     0.1964662,  -10.07871606, 0.15707963268,-0.06981317008,             0
12.29,  -1.01180093,   0.16699627,  -9.96083634, 0.0872664626,            0,0.05235987756
12.32,  -1.01180093,   0.31434592,  -9.99030627,0.01745329252,0.01745329252,0.10471975512
12.35,  -1.04127086,   0.31434592, -10.07871606,0.03490658504,            0,0.13962634016
12.38,  -0.95286107,    0.1964662,  -9.90189648,0.05235987756,            0, 0.1745329252
12.43,  -0.95286107,   0.31434592,  -9.78401676,0.06981317008,0.01745329252, 0.1745329252
12.46,       -1.12968065,        0.43222564,-9.931366410000001,      0.0872664626,                 0,     0.12217304764
12.5,   -0.92339114,    0.07858648,  -10.04924613, 0.12217304764,-0.01745329252, 0.15707963268
12.53,  -0.83498135,   -0.1964662,  -9.81348669,0.12217304764,            0,0.22689280276
12.56,   -1.04127086,             0,   -9.78401676, 0.01745329252,-0.03490658504, 0.31415926536
12.6,       -1.10021072,        0.10805641,-9.646490419999999,     0.01745329252,    -0.06981317008,     0.27925268032
12.64,   -1.07074079,   -0.07858648,   -9.58755056,             0,-0.05235987756, 0.29670597284
12.67,   -1.20826713,    0.16699627,    -9.5286107,-0.05235987756,-0.10471975512, 0.38397243544
12.71,   -1.41455664,    0.34381585,   -9.49914077,-0.03490658504, -0.1745329252, 0.40142572796
12.74,    -1.4734965,     0.1964662,   -9.49914077, 0.03490658504,-0.15707963268, 0.47123889804
12.78,       -1.50296643,        0.13752634,-9.646490419999999,     0.12217304764,    -0.12217304764,      0.5235987756
12.81,       -1.65031608,        0.31434592,-9.558080629999999,     0.13962634016,    -0.03490658504,     0.48869219056
12.85,       -1.75837249,        0.01964662,-9.842956620000001,     0.15707963268,                 0,     0.54105206812
12.88,  -1.69943263,   0.04911655,  -9.87242655,0.12217304764,0.06981317008,0.54105206812
12.92,        -1.4734965,        0.34381585,-9.754546830000001,     0.13962634016,     0.03490658504,     0.45378560552
12.95,   -1.44402657,    0.22593613,  -10.07871606, 0.13962634016,-0.03490658504, 0.40142572796
12.98,  -1.67978601,   0.07858648,  -9.96083634, 0.0872664626,-0.0872664626,0.41887902048
13.01,   -1.56190629,    0.10805641,   -9.81348669, 0.05235987756,-0.05235987756,   0.436332313
13.05,       -1.50296643,        0.01964662,-9.931366410000001,     0.10471975512,                 0,     0.45378560552
13.09,  -1.35561678,   0.13752634,  -10.0197762,0.13962634016,0.06981317008,  0.436332313
13.12,  -1.32614685,   0.13752634, -10.13765592,0.10471975512,0.12217304764,0.36651914292
13.15,  -1.14932727,            0, -10.19659578,0.03490658504,0.13962634016,0.31415926536
13.19,  -0.92339114,   0.10805641,  -10.0197762,            0,0.13962634016,0.27925268032
13.23,  -1.01180093,   0.28487599, -10.10818599,            0,0.10471975512, 0.2617993878
13.26,   -1.12968065,    0.28487599,  -10.10818599,-0.01745329252,  0.0872664626,  0.2617993878
13.29,       -0.86445128,        0.37328578,-9.666137040000001,                 0,      0.0872664626,      0.2617993878
13.33,       -0.77604149,        0.37328578,-9.646490419999999,      0.0872664626,     0.12217304764,     0.27925268032
13.37,       -0.83498135,         0.1964662,-9.725076899999999,     0.10471975512,     0.15707963268,     0.31415926536
13.4,  -0.71710163,   0.16699627,  -9.69560697,0.12217304764, 0.1745329252, 0.3490658504
13.44,  -0.74657156,            0,  -9.87242655,0.12217304764,0.15707963268, 0.3490658504
13.47,  -0.74657156,   0.07858648,  -9.87242655, 0.0872664626, 0.1745329252,0.33161255788
13.5,       -0.59922191,        0.16699627,-9.754546830000001,     0.03490658504,     0.13962634016,     0.33161255788
13.53,       -0.52063543,        0.13752634,-9.725076899999999,      0.0872664626,     0.06981317008,     0.36651914292
13.57,  -0.62869184,   0.28487599,  -9.69560697, 0.0872664626,0.06981317008, 0.3490658504
13.6,  -0.77604149,   0.16699627,  -9.87242655,0.06981317008,0.06981317008,0.36651914292
13.64,  -0.65816177,   0.22593613,  -9.78401676,0.05235987756, 0.0872664626,  0.436332313
13.68,  -0.56975198,            0,  -9.78401676,0.12217304764,0.03490658504,0.41887902048
13.71,  -0.59922191,  -0.10805641,  -9.69560697,0.12217304764,0.10471975512,0.36651914292
13.75,       -0.55010536,       -0.07858648,-9.666137040000001,     0.05235987756,      0.1745329252,      0.3490658504
13.78,  -0.34381585,  -0.10805641,  -9.87242655,0.03490658504,0.10471975512,0.31415926536
13.82,       -0.25540606,        0.10805641,-9.666137040000001,     0.05235987756,     0.06981317008,     0.22689280276
13.85,  -0.22593613,            0,  -9.61702049,0.03490658504,0.03490658504,0.15707963268
13.89,        -0.1964662,       -0.22593613,-9.754546830000001,     0.05235987756,                 0,     0.01745329252
13.92,       -0.56975198,       -0.25540606,-9.931366410000001,                 0,                 0,     -0.0872664626
13.95,   -0.34381585,   -0.34381585,   -9.87242655,-0.06981317008, 0.01745329252, -0.1745329252
13.98,       -0.22593613,       -0.34381585,-9.754546830000001,    -0.10471975512,                 0,    -0.22689280276
14.01,       -0.37328578,       -0.25540606,-9.842956620000001,     -0.1745329252,    -0.01745329252,    -0.27925268032
14.04,       -0.28487599,       -0.22593613,-9.666137040000001,     -0.1745329252,    -0.05235987756,    -0.31415926536
14.08,       -0.28487599,       -0.25540606,-9.558080629999999,    -0.12217304764,    -0.06981317008,     -0.3490658504
14.11,       -0.37328578,        -0.1964662,-9.558080629999999,     -0.0872664626,    -0.10471975512,      -0.436332313
14.15,       -0.46169557,       -0.31434592,-9.646490419999999,     -0.0872664626,    -0.10471975512,    -0.40142572796
14.18,        -0.4911655,       -0.40275571,-9.754546830000001,    -0.12217304764,    -0.10471975512,    -0.38397243544
14.22,   -0.52063543,   -0.40275571,   -9.78401676, -0.0872664626, -0.0872664626,-0.40142572796
14.25,       -0.56975198,       -0.31434592,-9.725076899999999,    -0.10471975512,    -0.05235987756,    -0.40142572796
14.29,       -0.65816177,       -0.04911655,-9.842956620000001,    -0.10471975512,    -0.05235987756,      -0.436332313
14.33,   -0.62869184,   -0.25540606,   -9.90189648,-0.06981317008,-0.06981317008,-0.41887902048
14.36,   -0.74657156,   -0.22593613,   -9.78401676,-0.05235987756,-0.01745329252,-0.41887902048
14.39,       -0.74657156,       -0.16699627,-9.725076899999999,    -0.06981317008,                 0,    -0.41887902048
14.43,       -0.55010536,       -0.28487599,-9.754546830000001,    -0.03490658504,    -0.01745329252,      -0.436332313
14.46,        -0.6876317,       -0.16699627,-9.754546830000001,    -0.03490658504,    -0.05235987756,    -0.47123889804
14.51,   -0.95286107,   -0.04911655,   -9.81348669,-0.06981317008,-0.05235987756,-0.50614548308
14.53,       -0.80551142,        -0.1964662,-9.842956620000001,    -0.03490658504,    -0.05235987756,    -0.50614548308
14.57,   -0.92339114,   -0.10805641,   -9.87242655,-0.01745329252,-0.03490658504,-0.47123889804
14.61,     -0.982331,    0.04911655,   -9.81348669,-0.05235987756,             0,-0.45378560552
14.64,     -0.982331,             0,   -9.81348669,-0.03490658504,             0,-0.47123889804
14.68,         -0.982331,       -0.01964662,-9.754546830000001,    -0.03490658504,     0.01745329252,    -0.47123889804
14.72,   -0.95286107,     0.1964662,   -9.81348669,-0.01745329252, 0.01745329252,-0.50614548308
14.75,         -0.982331,        0.01964662,-9.842956620000001,    -0.01745329252,     0.01745329252,    -0.48869219056
14.78,       -0.92339114,        0.01964662,-9.754546830000001,    -0.03490658504,     0.05235987756,    -0.48869219056
14.82,       -0.86445128,        0.22593613,-9.666137040000001,    -0.01745329252,                 0,     -0.5235987756
14.85,       -0.89392121,        0.16699627,-9.725076899999999,    -0.05235987756,    -0.01745329252,    -0.50614548308
14.9,       -0.95286107,        0.04911655,-9.754546830000001,     -0.0872664626,                 0,    -0.47123889804
14.93,       -1.04127086,        0.37328578,-9.754546830000001,    -0.15707963268,    -0.01745329252,    -0.47123889804
14.97,       -1.14932727,        0.43222564,-9.754546830000001,    -0.13962634016,    -0.05235987756,     -0.5235987756
15,     -0.982331,     0.4911655,   -9.61702049,-0.13962634016,-0.01745329252,-0.59341194568
15.04,       -0.83498135,        0.28487599,-9.646490419999999,    -0.12217304764,     0.01745329252,    -0.54105206812
15.07,       -0.86445128,        0.40275571,-9.754546830000001,    -0.12217304764,     0.01745329252,    -0.47123889804
15.1,       -0.92339114,        0.55010536,-9.754546830000001,    -0.10471975512,                 0,    -0.47123889804
15.14,   -0.83498135,    0.37328578,   -9.78401676,-0.10471975512,             0,-0.48869219056
15.18,       -0.92339114,        0.22593613,-9.842956620000001,    -0.10471975512,                 0,      -0.436332313
15.21,       -0.86445128,        0.34381585,-9.931366410000001,    -0.12217304764,                 0,      -0.436332313
15.24,   -0.77604149,    0.34381585,   -9.90189648,-0.05235987756, 0.01745329252,-0.40142572796
15.27,       -0.77604149,        0.43222564,-9.725076899999999,    -0.06981317008,     0.05235987756,    -0.38397243544
15.31,       -0.86445128,        0.56975198,-9.842956620000001,    -0.05235987756,     0.06981317008,    -0.38397243544
15.34,    -0.6876317,    0.56975198,   -9.81348669,             0,  0.0872664626,-0.40142572796
15.38,   -0.59922191,    0.34381585,   -9.78401676,             0,  0.0872664626,-0.36651914292
15.41,   -0.71710163,    0.40275571,   -9.87242655,-0.05235987756,             0,-0.36651914292
15.45,   -0.83498135,    0.37328578,   -10.0197762,-0.06981317008,-0.03490658504,-0.31415926536
15.48,   -0.92339114,    0.37328578,   -9.78401676,-0.10471975512,-0.03490658504,-0.33161255788
15.51,       -0.95286107,        0.52063543,-9.725076899999999,     -0.0872664626,     0.03490658504,    -0.36651914292
15.55,   -0.77604149,    0.56975198,   -9.78401676,-0.06981317008, 0.06981317008,-0.38397243544
15.58,       -0.56975198,        0.55010536,-9.842956620000001,    -0.05235987756,     0.06981317008,    -0.40142572796
15.61,    -0.4911655,     0.4911655,   -9.90189648,-0.05235987756, 0.06981317008,-0.38397243544
15.65,    -0.4911655,    0.55010536,   -9.90189648,-0.03490658504, 0.03490658504,-0.36651914292
15.68,        -0.4911655,         0.4911655,-9.931366410000001,    -0.03490658504,     0.05235987756,    -0.29670597284
15.72,   -0.55010536,    0.55010536,   -9.69560697,-0.03490658504, 0.05235987756,-0.24434609528
15.76,       -0.59922191,        0.80551142,-9.666137040000001,    -0.05235987756,     0.10471975512,    -0.22689280276
15.79,       -0.55010536,        0.74657156,-9.754546830000001,                 0,     0.06981317008,    -0.20943951024
15.83,   -0.59922191,    0.77604149,   -9.69560697, 0.01745329252,  0.0872664626,-0.24434609528
15.86,   -0.56975198,    0.71710163,   -9.78401676, 0.03490658504,  0.0872664626,-0.20943951024
15.89,  -0.52063543,   0.59922191,  -9.90189648,            0,0.06981317008,-0.1745329252
15.92,       -0.46169557,         0.6876317,-9.754546830000001,    -0.03490658504,     0.03490658504,    -0.12217304764
15.95,   -0.56975198,    0.89392121,   -9.69560697,-0.05235987756, 0.01745329252,-0.12217304764
15.99,   -0.56975198,    0.80551142,   -9.78401676,-0.10471975512, 0.01745329252,-0.10471975512
16.03,    -0.4911655,    0.89392121,   -9.58755056,-0.12217304764, 0.01745329252, -0.0872664626
16.06,   -0.55010536,      0.982331,   -9.58755056,-0.15707963268,             0, -0.0872664626
16.09,   -0.52063543,      0.982331,   -9.78401676,-0.13962634016,             0,             0
16.13,   -0.37328578,    0.86445128,   -9.78401676,-0.01745329252, 0.03490658504, 0.12217304764
16.17,       -0.34381585,        0.92339114,-9.842956620000001,                 0,     0.01745329252,     0.24434609528
16.2,  -0.31434592,     0.982331,  -9.69560697,0.01745329252,0.03490658504, 0.3490658504
16.24,  -0.40275571,   0.92339114,  -9.69560697,0.03490658504,0.01745329252,0.41887902048
16.28,       -0.37328578,        0.86445128,-9.646490419999999,     0.06981317008,     0.06981317008,     0.40142572796
16.31,  -0.25540606,   0.86445128,  -9.81348669,0.06981317008,0.10471975512,0.45378560552
16.34,  -0.22593613,    0.6876317,  -9.99030627,0.03490658504,0.05235987756,0.48869219056
16.38,       -0.13752634,        0.83498135,-9.725076899999999,     0.01745329252,     0.01745329252,     0.48869219056
16.42,  -0.16699627,   0.86445128,  -9.81348669,0.03490658504,            0,0.50614548308
16.45,   -0.01964662,    0.65816177,   -9.78401676, 0.06981317008,-0.01745329252,  0.5235987756
16.49,       -0.10805641,        0.74657156,-9.558080629999999,     0.06981317008,                 0,     0.50614548308
16.52,       -0.13752634,        0.74657156,-9.646490419999999,      0.0872664626,                 0,      0.5235987756
16.56,       -0.10805641,        0.56975198,-9.842956620000001,     0.10471975512,    -0.03490658504,0.5759586531600001
16.6,   -0.10805641,    0.55010536,   -9.78401676, 0.13962634016,-0.03490658504, 0.62831853072
16.63,        -0.1964662,        0.59922191,-9.842956620000001,     0.13962634016,    -0.06981317008,     0.64577182324
16.67,       -0.22593613,        0.40275571,-9.666137040000001,     0.20943951024,    -0.05235987756,      0.6108652382
16.7,       -0.28487599,        0.40275571,-9.558080629999999,      0.1745329252,                 0,     0.62831853072
16.74,       -0.04911655,        0.31434592,-9.666137040000001,      0.1745329252,                 0,     0.62831853072
16.77,   -0.10805641,    0.07858648,   -9.81348669, 0.22689280276,-0.03490658504, 0.55850536064
16.81,  -0.40275571,   0.22593613,  -9.78401676,0.19198621772,            0,0.50614548308
16.85,       -0.13752634,        0.07858648,-9.931366410000001,     0.13962634016,                 0,     0.50614548308
16.88,   -0.13752634,   -0.22593613,  -10.04924613, 0.15707963268,-0.03490658504, 0.47123889804
16.91,   -0.34381585,    0.07858648,   -9.99030627, 0.10471975512,-0.01745329252,   0.436332313
16.95,   -0.31434592,    0.10805641,   -9.99030627, 0.05235987756,-0.01745329252, 0.40142572796
16.99,   -0.22593613,    0.04911655,   -9.99030627, 0.05235987756,-0.05235987756, 0.40142572796
17.02,       -0.37328578,         0.1964662,-9.931366410000001,     0.01745329252,    -0.06981317008,     0.45378560552
17.06,   -0.34381585,    0.25540606,   -9.81348669, 0.03490658504,-0.06981317008, 0.47123889804
17.09,   -0.34381585,    0.13752634,   -9.87242655, 0.06981317008,-0.05235987756, 0.47123889804
17.13,       -0.55010536,        0.25540606,-9.842956620000001,      0.0872664626,    -0.01745329252,     0.45378560552
17.16,   -0.59922191,    0.25540606,   -9.87242655,  0.0872664626,-0.01745329252, 0.41887902048
17.2,       -0.52063543,        0.07858648,-9.842956620000001,     0.12217304764,    -0.01745329252,     0.40142572796
17.24,   -0.6876317,   0.04911655,  -9.78401676,0.06981317008,0.01745329252,0.41887902048
17.27,  -0.62869184,   0.04911655,  -9.87242655,0.03490658504,            0,  0.436332313
17.31,       -0.56975198,       -0.04911655,-9.842956620000001,     0.03490658504,                 0,       0.436332313
17.34,  -0.62869184,    0.1964662,  -9.81348669,            0,0.01745329252,0.45378560552
17.38,       -0.56975198,         0.1964662,-9.931366410000001,    -0.01745329252,     0.05235987756,       0.436332313
17.41,  -0.55010536,   0.07858648,  -9.99030627,            0,0.03490658504,0.41887902048
17.45,  -0.43222564,   0.16699627,  -9.99030627,0.01745329252,0.01745329252,0.40142572796
17.48,  -0.31434592,   0.07858648,  -9.87242655,0.01745329252,0.03490658504,0.40142572796
17.51,  -0.46169557,   0.10805641,  -9.87242655,0.03490658504,0.03490658504,0.36651914292
17.55,  -0.56975198,   0.04911655,  -9.96083634,0.03490658504,0.05235987756,0.33161255788
17.59,       -0.40275571,       -0.07858648,-9.725076899999999,     0.03490658504,      0.0872664626,     0.36651914292
17.61,       -0.31434592,       -0.10805641,-9.666137040000001,                 0,     0.13962634016,     0.41887902048
17.65,       -0.28487599,       -0.13752634,-9.666137040000001,                 0,     0.06981317008,     0.40142572796
17.68,       -0.46169557,                 0,-9.666137040000001,     0.03490658504,     0.05235987756,     0.29670597284
17.72,  -0.40275571,  -0.04911655,   -9.5286107, 0.0872664626,0.06981317008,0.20943951024
17.75,       -0.37328578,       -0.13752634,-9.842956620000001,      0.1745329252,     0.05235987756,     0.03490658504
17.79,   -0.46169557,   -0.13752634,   -9.96083634, 0.05235987756, 0.01745329252,-0.01745329252
17.82,    0.01964662,   -0.62869184,   -9.78401676, 0.03490658504,             0,-0.15707963268
17.86,       -0.28487599,        -0.6876317,-9.842956620000001,    -0.03490658504,     0.05235987756,     -0.1745329252
17.89,   -0.28487599,   -0.40275571,   -9.87242655,             0, 0.03490658504,-0.27925268032
17.93,   0.31434592,  -0.56975198,   -9.5286107,-0.0872664626,            0,-0.3490658504
17.96,    0.22593613,   -0.43222564,  -10.07871606,-0.15707963268,-0.03490658504,-0.24434609528
17.99,   -0.01964662,   -0.55010536,  -10.94316734,-0.01745329252, -0.2617993878,-0.24434609528
18.03,                 0,       -0.62869184,-9.646490419999999,    -0.12217304764,     -0.1745329252,     -0.1745329252
18.06,       -0.43222564,        0.25540606,-9.204441470000001,    -0.01745329252,     0.03490658504,    -0.19198621772
18.1,   -0.4911655,  -0.43222564, -10.33412212,0.13962634016,0.10471975512, -0.436332313
18.13,    0.46169557,   -0.56975198,   -8.68380604,-0.15707963268, 0.10471975512,-0.29670597284
18.17,   -1.04127086,   -0.16699627,  -11.40486291,             0,-0.13962634016,  -0.436332313
18.2,   -0.56975198,   -0.86445128,   -10.0197762,-0.20943951024,             0,-0.29670597284
18.24,    0.83498135,    0.25540606,   -8.94903541,-0.12217304764, 0.12217304764, -0.2617993878
18.27,     -0.982331,    0.40275571,  -10.36359205, 0.10471975512,-0.05235987756,-0.55850536064
18.3,    1.04127086,   -0.22593613,   -7.81935476,-0.38397243544, 0.03490658504,-0.36651914292
18.34,   -1.01180093,             0,  -11.75850207, -0.1745329252, -0.3490658504,-0.33161255788
18.38,   -0.37328578,    1.04127086,   -8.71327597, 0.27925268032,-0.22689280276,-0.76794487088
18.41,   -1.20826713,   -2.33794778,  -10.79581769,-0.66322511576, 0.06981317008,-0.40142572796
18.44,   -1.01180093,    1.62084615,  -10.27518226, -0.0872664626, -0.1745329252,-0.41887902048
18.48,        0.86445128,        0.07858648,-8.398930050000001,     -0.2617993878,     0.05235987756,    -0.54105206812
18.52,       -0.37328578,       -0.13752634,-9.469670839999999,    -0.41887902048,    -0.01745329252,    -0.06981317008
18.55,       -1.07074079,        2.60317715,      -10.13765592,0.5759586531600001,    -0.31415926536,    -0.59341194568
18.59,   -0.37328578,   -0.80551142,    -9.2339114,-0.15707963268,             0,-0.68067840828
18.62,   -1.12968065,    0.89392121,   -9.58755056,-0.12217304764,             0,-0.19198621772
18.66,     -0.982331,    0.13752634,  -11.67009228, 0.20943951024,-0.15707963268,-0.38397243544
18.67,    0.13752634,    0.16699627,    -7.2692494,-0.47123889804, 0.13962634016, 0.06981317008
18.7,  -0.59922191,   1.90572214, -11.35574636,0.06981317008,-0.1745329252,            0
18.74,   -1.87625221,    0.16699627,  -10.07871606,  0.3490658504,-0.31415926536, -0.5235987756
18.77,    0.46169557,    0.56975198,   -6.82720045,-0.31415926536, 0.15707963268,-0.19198621772
18.81,   -1.32614685,    0.65816177,  -12.62295335,  0.0872664626,-0.03490658504,-0.48869219056
18.84,       -1.26720699,       -0.46169557,-9.116031680000001,                 0,     0.05235987756,    -0.59341194568
18.88,   -0.16699627,   -0.52063543,  -10.48147177,-0.62831853072, 0.20943951024,             0
18.92,   -0.31434592,    2.69158694,   -9.35179112, 0.29670597284,-0.15707963268,-0.20943951024
18.94,    0.65816177,   -0.22593613,   -9.06691513,-0.10471975512,  0.1745329252,-0.33161255788
18.99,  -2.54423729,   1.90572214, -12.33807736,0.03490658504,0.15707963268,-0.0872664626
19.02,         0.4911655,        1.84678228,-8.369460119999999,     0.24434609528,     0.29670597284,    -0.75049157836
19.05,   -1.04127086,   -2.02360186,  -10.82528762,-0.40142572796, 0.31415926536,-0.24434609528
19.09,    0.40275571,    2.33794778,   -8.94903541,   0.436332313, -0.0872664626,-0.22689280276
19.12,   -0.04911655,   -1.29667692,   -9.35179112,-0.20943951024, -0.0872664626,-0.29670597284
19.16,   -1.10021072,    1.01180093,  -10.22606571,-0.29670597284,-0.03490658504, 0.19198621772
19.19,     -0.982331,    1.90572214,   -9.26338133,  0.1745329252, 0.12217304764,-0.36651914292
19.23,       -1.01180093,       -0.92339114,-9.842956620000001,    -0.48869219056,     0.36651914292,    -0.13962634016
19.26,    0.28487599,    3.49709836,   -8.68380604, 0.62831853072,  0.1745329252,-0.27925268032
19.3,   -0.74657156,   -1.84678228,  -11.40486291, 0.06981317008, 0.10471975512,-0.31415926536
19.33,    1.50296643,     1.4734965,    -6.9745501,-0.50614548308, 0.31415926536, 0.47123889804
19.36,   -1.23773706,    2.54423729,  -12.50507363, 0.80285145592, 0.01745329252,-0.31415926536
19.4,       -1.32614685,       -1.56190629,-9.725076899999999,    -0.13962634016,     0.06981317008,    -0.31415926536
19.43,     2.7505268,    1.14932727,   -5.11794451,-0.54105206812, 0.24434609528, 0.33161255788
19.46,   -1.56190629,   -0.25540606,   -15.3243636, 0.55850536064,-0.45378560552, -0.0872664626
19.51,       -1.78784242,       -0.07858648,-8.831155689999999,    -0.10471975512,     -0.0872664626,    -0.05235987756
19.54,    2.4558275,   1.59137622,  -4.68571887,-0.7853981634,0.71558499332,0.29670597284
19.57,   -0.13752634,    0.86445128,  -15.49135987,-0.13962634016,-0.05235987756, 0.13962634016
19.61,   -1.14932727,    0.95286107,  -10.45200184, 0.12217304764,-0.15707963268, -0.0872664626
19.65,    2.39688764,     1.4734965,   -5.72698973,-0.41887902048, 0.45378560552, 0.33161255788
19.68,   -0.37328578,    1.99413193,   -14.5384988, 0.31415926536,-0.20943951024,  0.2617993878
19.71,   -3.58550815,   -2.08254172,  -13.08464892, 0.31415926536,-0.45378560552,-0.13962634016
19.75,    3.12381258,    2.91752307,    1.38508671,-0.10471975512, 0.92502450356, 0.03490658504
19.78,    2.48529743,   -0.86445128,  -16.10040509,-0.05235987756,-0.06981317008,  0.2617993878
19.82,   -3.18275244,   -2.08254172,  -15.90393889, 0.24434609528,-1.27409035396,             0
19.85,    1.69943263,    3.30063216,   -0.77604149, -0.1745329252,   0.436332313,-0.15707963268
19.88,   -0.01964662,    1.59137622,  -10.27518226,-0.29670597284, 0.33161255788, 0.05235987756
19.93,  -2.77999673,  -1.87625221, -17.23008574,0.33161255788,-0.7853981634,-0.2617993878
19.96,     1.4734965,    1.26720699,   -3.30063216, 0.05235987756,  0.3490658504,-0.20943951024
19.99,        1.84678228,        0.25540606,-9.096385059999999,     -0.3490658504,     0.54105206812,     0.47123889804
20.03,   -1.87625221,   -1.07074079,  -18.10436033,  0.0872664626,-0.71558499332, 0.20943951024
20.06,   0.25540606,   1.78784242,  -5.06882796, 0.1745329252, 0.2617993878,-0.2617993878
20.09,        2.36741771,        2.20042144,       -5.55999346,    -0.13962634016,0.8377580409600001,     0.13962634016
20.13,   -0.80551142,   -1.50296643,  -18.16330019,             0,-0.71558499332,             0
20.16,   -1.23773706,   -0.37328578,   -9.69560697,  0.0872664626,-0.64577182324, -0.2617993878
20.2,     0.6876317,    2.33794778,   -2.97646293,-0.19198621772, 0.59341194568,-0.03490658504
20.24,    0.62869184,    1.10021072,  -12.88818272, -0.2617993878,-0.03490658504, 0.06981317008
20.27,   -2.22989137,   -1.04127086,  -13.64457759,  0.1745329252,-0.68067840828,-0.20943951024
20.3,    1.50296643,    2.11201165,   -1.72890256,-0.12217304764, 0.68067840828,-0.06981317008
20.33,    2.51476736,    1.65031608,   -7.98635103,-0.36651914292,  0.5235987756, 0.48869219056
20.36,   -1.75837249,   -1.38508671,  -19.11616126, 0.10471975512,-0.99483767364, 0.19198621772
20.4,   -1.12968065,     1.1787972,   -7.73094497,             0,-0.20943951024, 0.12217304764
20.44,    0.95286107,     3.4381585,   -3.00593286,-0.10471975512, 0.94247779608, 0.47123889804
20.47,   -0.52063543,    1.32614685,  -16.48351418,   0.436332313,-0.13962634016,  0.1745329252
20.51,   -1.65031608,   -1.67978601,  -16.07093516, 0.13962634016,-0.62831853072,-0.03490658504
20.54,    1.99413193,    0.80551142,   -3.55603822,-0.47123889804, 0.66322511576, 0.38397243544
20.57,   0.28487599,    2.7505268, -12.65242328,-0.0872664626,0.38397243544, 0.5235987756
20.61,   -1.56190629,   -0.07858648,  -14.56796873, 0.38397243544,-0.47123889804,-0.06981317008
20.64,    1.10021072,    0.07858648,   -5.38317388,-0.33161255788, 0.29670597284, 0.15707963268
20.68,    2.27900792,    1.75837249,   -6.88614031,-0.38397243544, 0.45378560552, 0.41887902048
20.71,   -1.04127086,    1.01180093,  -15.37348015,   0.436332313,-0.68067840828,-0.27925268032
20.74,   -0.62869184,   -0.56975198,   -7.55412539, -0.1745329252,-0.15707963268, -0.2617993878
20.78,   2.77999673,   3.33010209,  -2.17095151,-0.0872664626,0.76794487088,0.03490658504
20.81,    0.28487599,     0.1964662,  -15.98252537, 0.24434609528,-0.41887902048, -0.0872664626
20.85,   -2.20042144,   -2.08254172,  -14.33220929, 0.10471975512, -0.6981317008,-0.19198621772
20.89,    1.10021072,    2.33794778,   -1.84678228,-0.10471975512, 0.73303828584,-0.03490658504
20.92,        2.51476736,        3.82126759,-8.222110470000001,     0.38397243544,     0.48869219056,    -0.10471975512
20.95,       -1.62084615,       -2.91752307,      -18.04542047,0.5759586531600001,    -0.85521133348,     -0.2617993878
20.99,       -0.10805641,       -1.75837249,-8.192640539999999,     -0.2617993878,    -0.22689280276,     0.10471975512
21.02,   1.01180093,   2.17095151,  -2.97646293,-0.2617993878,0.71558499332,0.19198621772
21.06,0,0,0,0,0,0
