time,accX,accY,accZ,wRoll,wPitch,wYaw,Pa
0.19,       -0.2946993,       0.37328578,      -9.25355802,                0,                0,                0,100014.4195556641
0.25,      -0.28487599,       0.37328578,      -9.50896408,                0,                0,                0,100014.4653320312
0.32,      -0.26522937,       0.35363916,      -9.69560697,                0,   -0.01745329252,                0,100014.5034790039
0.39,      -0.27505268,       0.35363916,      -9.80366338,                0,   -0.01745329252,                0,100014.5492553711
0.46,      -0.27505268,       0.37328578,      -9.89207317,                0,   -0.03490658504,                0,100014.5874023438
0.53,       -0.27505268,        0.36346247,-9.931366410000001,                 0,    -0.06981317008,                 0, 100014.6255493164
0.6,      -0.27505268,       0.38310909,      -9.98048296,                0,   -0.05235987756,                0,100014.6636962891
0.67,      -0.28487599,       0.38310909,     -10.00012958,                0,    -0.0872664626,                0,100014.7018432617
0.75,      -0.28487599,       0.38310909,      -10.0197762,                0,    -0.0872664626,                0,100014.7399902344
0.82,      -0.2946993,      0.36346247,    -10.00995289,               0,   -0.0872664626,               0,100014.762878418
0.89,      -0.28487599,       0.37328578,      -10.0197762,                0,   -0.06981317008,                0,100014.7933959961
0.97,      -0.28487599,       0.36346247,     -10.02959951,                0,    -0.0872664626,                0,100014.8162841797
1.04,      -0.28487599,       0.37328578,     -10.04924613,                0,   -0.10471975512,    0.01745329252,100014.8544311523
1.11,      -0.27505268,       0.38310909,     -10.02959951,                0,   -0.10471975512,                0,100014.8696899414
1.16,       -0.2946993,       0.36346247,     -10.02959951,                0,    -0.0872664626,                0,100014.8773193359
1.22,      -0.26522937,       0.38310909,     -10.02959951,                0,   -0.05235987756,                0,100014.9078369141
1.27,      -0.27505268,       0.38310909,     -10.03942282,    0.01745329252,   -0.05235987756,   -0.01745329252,100014.9230957031
1.32,      -0.26522937,       0.37328578,     -10.03942282,    0.01745329252,   -0.05235987756,                0,100014.9383544922
1.38,      -0.27505268,       0.37328578,     -10.02959951,                0,   -0.03490658504,   -0.01745329252,100014.9307250977
1.46,      -0.28487599,       0.36346247,     -10.02959951,    0.01745329252,   -0.03490658504,                0,100014.9383544922
1.54,      -0.28487599,       0.35363916,     -10.03942282,                0,                0,                0,100014.9459838867
1.64,       -0.2946993,       0.38310909,     -10.03942282,    0.01745329252,   -0.01745329252,                0,100014.9383544922
1.73,      -0.27505268,       0.36346247,     -10.04924613,    0.03490658504,   -0.01745329252,                0,100014.9383544922
1.83,      -0.27505268,       0.34381585,     -10.02959951,    0.01745329252,                0,                0,100014.9383544922
1.88,      -0.27505268,       0.38310909,     -10.03942282,    0.01745329252,                0,                0,100014.9307250977
1.98,      -0.27505268,       0.37328578,     -10.04924613,    0.03490658504,    0.01745329252,                0,100014.9230957031
2.06,      -0.28487599,       0.36346247,     -10.02959951,    0.01745329252,    0.03490658504,                0,100014.9154663086
2.13,     -0.27505268,      0.37328578,    -10.03942282,   0.01745329252,   0.01745329252,               0,100014.892578125
2.21,       -0.2946993,       0.37328578,     -10.05906944,    0.01745329252,    0.05235987756,                0,100014.8849487305
2.29,      -0.27505268,       0.38310909,     -10.03942282,    0.01745329252,    0.05235987756,                0,100014.8620605469
2.39,      -0.27505268,       0.36346247,     -10.03942282,    0.03490658504,    0.06981317008,                0,100014.8468017578
2.45,      -0.28487599,       0.37328578,     -10.04924613,    0.01745329252,    0.06981317008,                0,100014.8239135742
2.51,      -0.27505268,        0.3929324,     -10.03942282,    0.01745329252,     0.0872664626,                0,100014.7857666016
2.6,      -0.26522937,       0.36346247,     -10.03942282,                0,    0.06981317008,                0,100014.7552490234
2.68,      -0.27505268,       0.36346247,     -10.04924613,    0.01745329252,     0.0872664626,                0,100014.7171020508
2.78,      -0.28487599,       0.36346247,     -10.02959951,    0.01745329252,     0.0872664626,                0,100014.6789550781
2.87,   -0.28487599,    0.37328578,  -10.02959951, 0.01745329252, 0.06981317008,             0,100014.6484375
2.97,      -0.26522937,       0.37328578,     -10.02959951,    0.01745329252,     0.0872664626,                0,100014.6179199219
3.02,      -0.27505268,       0.36346247,      -10.0197762,    0.01745329252,    0.06981317008,                0,100014.5797729492
3.12,      -0.26522937,       0.36346247,     -10.04924613,                0,    0.05235987756,                0,100014.5263671875
3.22,      -0.27505268,       0.36346247,     -10.02959951,                0,    0.06981317008,    0.01745329252,100014.4653320312
3.3,       -0.2946993,       0.38310909,     -10.02959951,                0,    0.06981317008,                0,100014.4195556641
3.38,      -0.27505268,       0.36346247,      -10.0197762,   -0.01745329252,    0.03490658504,                0,100014.3661499023
3.45,      -0.27505268,       0.37328578,     -10.02959951,   -0.01745329252,    0.03490658504,                0,100014.3051147461
3.53,      -0.27505268,       0.38310909,      -10.0197762,   -0.01745329252,    0.03490658504,                0,100014.2593383789
3.6,      -0.25540606,       0.38310909,      -10.0197762,   -0.03490658504,                0,                0,100014.1830444336
3.67,       -0.2946993,       0.38310909,     -10.00012958,   -0.01745329252,    0.01745329252,    0.01745329252,100014.1220092773
3.75,      -0.27505268,       0.37328578,      -9.99030627,   -0.03490658504,                0,                0,100014.0533447266
3.84,      -0.26522937,       0.38310909,     -10.00012958,   -0.01745329252,                0,                0,100013.9923095703
3.93,      -0.27505268,       0.38310909,     -10.00012958,   -0.01745329252,                0,                0,100013.9236450195
4.01,      -0.27505268,       0.35363916,     -10.00012958,   -0.03490658504,                0,    0.01745329252,100013.8473510742
4.09,      -0.28487599,        0.3929324,      -9.98048296,   -0.01745329252,                0,                0,100013.7557983398
4.19,      -0.27505268,       0.38310909,      -9.98048296,   -0.03490658504,                0,                0,100013.6871337891
4.26,      -0.28487599,       0.36346247,      -9.98048296,                0,                0,                0,100013.6032104492
4.31,       -0.2946993,       0.37328578,      -9.98048296,   -0.01745329252,   -0.01745329252,   -0.01745329252,100013.5192871094
4.4,      -0.25540606,       0.37328578,      -9.98048296,                0,   -0.03490658504,                0,100013.4429931641
4.46,      -0.27505268,       0.36346247,      -9.97065965,   -0.01745329252,   -0.01745329252,                0,100013.3514404297
4.53,      -0.28487599,       0.37328578,      -9.99030627,                0,   -0.03490658504,                0,100013.2675170898
4.61,      -0.27505268,       0.38310909,      -9.98048296,                0,   -0.05235987756,                0,100013.1912231445
4.67,      -0.28487599,       0.36346247,     -10.00012958,                0,   -0.03490658504,   -0.01745329252,100013.0767822266
4.71,       -0.2946993,       0.37328578,      -9.99030627,   -0.01745329252,   -0.03490658504,                0,100012.9776000977
4.8,       -0.2946993,       0.37328578,      -9.97065965,                0,   -0.03490658504,                0,100012.8936767578
4.84,      -0.28487599,       0.36346247,     -10.00012958,                0,   -0.03490658504,                0,100012.7792358398
4.91,      -0.27505268,       0.38310909,      -9.99030627,                0,   -0.01745329252,                0,100012.6800537109
4.99,       -0.2946993,       0.37328578,      -9.99030627,                0,   -0.05235987756,                0,100012.5885009766
5.07,      -0.27505268,       0.37328578,      -9.98048296,                0,   -0.01745329252,                0,100012.4816894531
5.15,      -0.31434592,       0.35363916,      -9.99030627,                0,   -0.01745329252,                0,100012.3672485352
5.25,      -0.28487599,       0.36346247,      -9.99030627,                0,   -0.01745329252,                0,100012.2756958008
5.33,      -0.28487599,       0.37328578,     -10.00012958,   -0.01745329252,                0,                0,100012.1536254883
5.41,       -0.2946993,       0.35363916,     -10.00012958,                0,                0,                0,100012.0468139648
5.5,       -0.2946993,       0.37328578,      -10.0197762,                0,                0,                0,100011.9323730469
5.56,      -0.27505268,       0.38310909,     -10.00995289,    0.01745329252,                0,                0,100011.8255615234
5.65,       -0.2946993,       0.36346247,      -10.0197762,                0,                0,                0,100011.6958618164
5.73,      -0.26522937,       0.38310909,     -10.00995289,    0.03490658504,    0.01745329252,                0,100011.5814208984
5.84,      -0.28487599,       0.37328578,     -10.04924613,    0.03490658504,    0.01745329252,                0,100011.4440917969
5.92,      -0.27505268,       0.35363916,      -10.0197762,    0.01745329252,    0.01745329252,                0,100011.3296508789
6,       -0.2946993,       0.38310909,     -10.02959951,                0,    0.03490658504,                0,100011.1846923828
6.09,      -0.28487599,       0.37328578,     -10.04924613,                0,    0.03490658504,                0,100011.0626220703
6.17,       -0.2946993,       0.37328578,     -10.03942282,                0,    0.05235987756,    0.01745329252,100010.9405517578
6.26,      -0.26522937,       0.36346247,     -10.04924613,    0.01745329252,    0.05235987756,                0,100010.7955932617
6.35,      -0.28487599,       0.38310909,     -10.04924613,    0.01745329252,    0.05235987756,                0,100010.6582641602
6.4,      -0.28487599,       0.36346247,     -10.04924613,    0.03490658504,    0.05235987756,                0,100010.5133056641
6.48,      -0.30452261,       0.36346247,     -10.06889275,                0,    0.03490658504,                0,100010.3607177734
6.56,      -0.27505268,       0.36346247,     -10.05906944,    0.01745329252,    0.03490658504,                0,100010.2233886719
6.62,      -0.27505268,       0.36346247,     -10.08853937,    0.01745329252,    0.05235987756,    0.01745329252,100010.0708007812
6.67,      -0.30452261,       0.37328578,     -10.07871606,                0,    0.03490658504,                0,100009.9105834961
6.74,  -0.27505268,   0.37328578, -10.09836268,0.01745329252,0.03490658504,0.01745329252,100009.765625
6.83,      -0.26522937,       0.37328578,     -10.06889275,                0,    0.05235987756,    0.01745329252,100009.5901489258
6.91,      -0.27505268,       0.36346247,     -10.07871606,                0,    0.05235987756,                0,100009.4299316406
6.99,      -0.27505268,       0.38310909,     -10.07871606,                0,    0.03490658504,                0,100009.2697143555
7.06,      -0.26522937,       0.37328578,     -10.09836268,                0,    0.05235987756,                0,100009.1018676758
7.13,       -0.2946993,       0.38310909,     -10.07871606,                0,    0.05235987756,                0,100008.9263916016
7.2,      -0.27505268,       0.36346247,     -10.09836268,                0,    0.03490658504,                0,100008.7432861328
7.24,      -0.27505268,       0.35363916,     -10.09836268,                0,    0.03490658504,                0,100008.5601806641
7.31,      -0.26522937,       0.38310909,     -10.09836268,                0,    0.03490658504,                0,100008.3923339844
7.4,      -0.28487599,       0.37328578,     -10.10818599,   -0.01745329252,    0.03490658504,                0,100008.2015991211
7.48,      -0.27505268,       0.34381585,     -10.09836268,   -0.03490658504,    0.03490658504,                0,100008.0108642578
7.55,      -0.28487599,       0.36346247,      -10.1180093,   -0.01745329252,    0.03490658504,                0,100007.8277587891
7.64,      -0.27505268,       0.37328578,     -10.09836268,   -0.01745329252,                0,                0,100007.6217651367
7.71,      -0.28487599,       0.41257902,     -10.10818599,   -0.03490658504,    0.01745329252,                0,100007.4157714844
7.78,     -0.27505268,      0.38310909,    -10.09836268,  -0.03490658504,               0,   0.01745329252,100007.209777832
7.86,      -0.27505268,       0.36346247,     -10.09836268,   -0.03490658504,                0,                0,100007.0037841797
7.92,      -0.28487599,       0.36346247,     -10.09836268,   -0.05235987756,    0.01745329252,                0,100006.7901611328
8.01,      -0.26522937,       0.37328578,     -10.09836268,   -0.03490658504,    0.01745329252,    0.01745329252,100006.5536499023
8.1,      -0.27505268,        0.3929324,     -10.09836268,   -0.05235987756,    0.01745329252,                0,100006.3552856445
8.16,      -0.27505268,       0.38310909,     -10.09836268,   -0.05235987756,                0,                0,100006.1264038086
8.24,      -0.28487599,       0.37328578,     -10.07871606,   -0.05235987756,                0,                0,100005.8975219727
8.32,      -0.28487599,       0.37328578,     -10.06889275,   -0.05235987756,                0,                0,100005.6610107422
8.39,      -0.28487599,       0.36346247,     -10.07871606,   -0.06981317008,                0,                0,100005.4397583008
8.46,      -0.28487599,       0.36346247,     -10.06889275,   -0.03490658504,                0,                0,100005.1956176758
8.54,      -0.30452261,       0.37328578,     -10.06889275,   -0.01745329252,                0,                0,100004.9591064453
8.63,      -0.27505268,       0.37328578,     -10.04924613,   -0.03490658504,                0,                0,100004.7302246094
8.7,      -0.30452261,       0.38310909,     -10.03942282,   -0.01745329252,                0,                0,100004.4631958008
8.78,      -0.27505268,       0.38310909,     -10.02959951,                0,                0,                0,100004.2266845703
8.86,      -0.27505268,       0.36346247,     -10.02959951,   -0.01745329252,   -0.01745329252,                0,100003.9749145508
8.93,      -0.26522937,       0.37328578,      -10.0197762,                0,   -0.05235987756,    0.01745329252,100003.7231445312
9,      -0.26522937,       0.38310909,     -10.02959951,   -0.01745329252,   -0.03490658504,                0,100003.4790039062
9.07,      -0.28487599,       0.37328578,     -10.00012958,   -0.03490658504,   -0.05235987756,                0,100003.2272338867
9.13,       -0.2946993,       0.36346247,     -10.00995289,                0,   -0.05235987756,                0,100002.9678344727
9.21,      -0.28487599,       0.36346247,     -10.00012958,                0,   -0.06981317008,    0.01745329252,100002.7008056641
9.28,      -0.27505268,       0.37328578,      -9.98048296,                0,   -0.05235987756,                0,100002.4490356445
9.37,       -0.2946993,       0.37328578,      -9.98048296,                0,   -0.05235987756,                0,100002.1896362305
9.45,       -0.2946993,       0.36346247,      -9.96083634,                0,   -0.05235987756,                0,100001.9073486328
9.53,      -0.28487599,       0.36346247,      -9.97065965,    0.01745329252,   -0.06981317008,                0,100001.6326904297
9.61,      -0.26522937,       0.36346247,      -9.95101303,    0.01745329252,   -0.06981317008,    0.01745329252,100001.3656616211
9.7,     -0.26522937,      0.37328578,     -9.96083634,               0,  -0.06981317008,               0,100001.091003418
9.79,      -0.28487599,       0.36346247,      -9.95101303,    0.01745329252,    -0.0872664626,                0,100000.8087158203
9.88,      -0.26522937,       0.37328578,      -9.96083634,    0.01745329252,   -0.05235987756,                0,100000.5493164062
9.97,       -0.31434592,        0.37328578,-9.931366410000001,     0.03490658504,    -0.06981317008,                 0, 100000.2670288086
10.02,       -0.27505268,        0.36346247,-9.941189720000001,     0.03490658504,    -0.05235987756,     0.01745329252, 99999.96948242188
10.11,      -0.28487599,       0.35363916,      -9.95101303,    0.03490658504,   -0.03490658504,    0.01745329252,99999.67956542969
10.18,       -0.28487599,        0.36346247,-9.941189720000001,     0.06981317008,    -0.03490658504,     0.01745329252, 99999.40490722656
10.25,       -0.28487599,        0.36346247,-9.931366410000001,     0.05235987756,    -0.06981317008,                 0, 99999.11499023438
10.28,       -0.26522937,        0.37328578,-9.931366410000001,     0.05235987756,    -0.05235987756,                 0, 99998.82507324219
10.34,       -0.28487599,        0.36346247,-9.941189720000001,     0.05235987756,    -0.03490658504,     0.01745329252, 99998.52752685547
10.42,      -0.28487599,       0.37328578,      -9.95101303,    0.03490658504,   -0.03490658504,                0,99998.25286865234
10.5,        -0.2946993,         0.3929324,-9.941189720000001,     0.03490658504,    -0.01745329252,     0.01745329252, 99997.96295166016
10.55,      -0.27505268,       0.37328578,      -9.95101303,    0.03490658504,   -0.01745329252,                0,99997.65777587891
10.62,       -0.28487599,        0.38310909,-9.941189720000001,     0.01745329252,                 0,                 0, 99997.36785888672
10.7,       -0.28487599,        0.36346247,-9.941189720000001,     0.03490658504,                 0,                 0, 99997.05505371094
10.8,       -0.28487599,        0.36346247,-9.931366410000001,     0.05235987756,                 0,                 0, 99996.78802490234
10.91,       -0.26522937,         0.3929324,-9.941189720000001,     0.03490658504,                 0,     0.01745329252, 99996.48284912109
10.99,      -0.28487599,       0.37328578,      -9.95101303,    0.01745329252,                0,                0,99996.17767333984
11.09,      -0.28487599,       0.38310909,      -9.96083634,                0,                0,                0,99995.88012695312
11.18,       -0.27505268,        0.37328578,-9.941189720000001,                 0,     0.03490658504,                 0, 99995.55969238281
11.24,       -0.27505268,        0.38310909,-9.921543099999999,                 0,     0.01745329252,                 0, 99995.26214599609
11.33,      -0.27505268,       0.38310909,      -9.95101303,                0,    0.05235987756,    0.01745329252,99994.97222900391
11.42,      -0.28487599,       0.38310909,      -9.97065965,                0,    0.03490658504,    0.01745329252,99994.65179443359
11.5,       -0.2946993,       0.36346247,      -9.96083634,                0,    0.03490658504,    0.01745329252,99994.35424804688
11.57,      -0.28487599,       0.38310909,      -9.96083634,    0.01745329252,    0.03490658504,    0.01745329252,99994.02618408203
11.62,      -0.27505268,       0.36346247,      -9.96083634,                0,    0.06981317008,    0.01745329252,99993.73626708984
11.71,      -0.27505268,       0.35363916,      -9.96083634,                0,    0.03490658504,                0,99993.41583251953
11.79,      -0.28487599,       0.37328578,      -9.96083634,                0,    0.05235987756,                0,99993.10302734375
11.85,      -0.26522937,       0.36346247,      -9.97065965,   -0.01745329252,    0.03490658504,    0.01745329252,99992.78259277344
11.92,       -0.2946993,       0.35363916,      -9.95101303,   -0.01745329252,    0.05235987756,                0,99992.46978759766
12,      -0.28487599,       0.36346247,      -9.97065965,   -0.03490658504,    0.05235987756,    0.01745329252,99992.14172363281
12.09,      -0.30452261,       0.36346247,      -9.97065965,   -0.01745329252,    0.03490658504,                0,99991.82891845703
12.14,      -0.27505268,       0.36346247,      -9.98048296,   -0.01745329252,    0.05235987756,    0.01745329252,99991.50848388672
12.24,      -0.27505268,       0.36346247,      -9.98048296,   -0.03490658504,    0.05235987756,    0.01745329252,99991.18804931641
12.31,      -0.28487599,       0.34381585,      -9.98048296,   -0.05235987756,    0.05235987756,    0.01745329252,99990.86761474609
12.4,      -0.27505268,       0.37328578,      -9.99030627,   -0.03490658504,    0.03490658504,                0,99990.53192138672
12.48,      -0.26522937,       0.37328578,      -9.99030627,   -0.03490658504,    0.05235987756,                0,99990.19622802734
12.57,      -0.30452261,       0.38310909,      -9.99030627,   -0.03490658504,    0.05235987756,    0.01745329252,99989.86053466797
12.62,      -0.27505268,       0.37328578,      -9.97065965,   -0.03490658504,    0.03490658504,    0.01745329252,99989.53247070312
12.68,      -0.27505268,       0.36346247,     -10.00012958,   -0.03490658504,    0.01745329252,    0.01745329252,99989.18914794922
12.75,      -0.27505268,       0.38310909,      -9.99030627,   -0.03490658504,    0.01745329252,    0.01745329252,99988.86108398438
12.84,      -0.27505268,       0.35363916,      -9.99030627,   -0.03490658504,                0,                0,99988.51013183594
12.91,     -0.28487599,      0.37328578,    -10.00012958,  -0.05235987756,   0.01745329252,   0.01745329252,99988.1591796875
12.99,      -0.28487599,       0.36346247,      -9.99030627,   -0.03490658504,    0.01745329252,    0.01745329252,99987.80822753906
13.05,      -0.27505268,       0.35363916,      -9.97065965,   -0.05235987756,    0.01745329252,    0.01745329252,99987.45727539062
13.11,      -0.28487599,       0.36346247,      -9.99030627,   -0.05235987756,                0,    0.01745329252,99987.09869384766
13.19,      -0.25540606,       0.36346247,     -10.00012958,   -0.03490658504,                0,    0.03490658504,99986.75537109375
13.25,      -0.28487599,       0.36346247,      -9.97065965,   -0.03490658504,                0,    0.01745329252,99986.40441894531
13.32,      -0.28487599,       0.38310909,      -9.98048296,   -0.03490658504,                0,                0,99986.05346679688
13.4,       -0.2946993,       0.36346247,      -9.97065965,   -0.03490658504,    0.01745329252,    0.01745329252,99985.69488525391
13.5,      -0.27505268,        0.3929324,      -9.97065965,   -0.01745329252,   -0.01745329252,    0.03490658504,99985.33630371094
13.59,      -0.27505268,       0.36346247,      -9.96083634,   -0.01745329252,   -0.01745329252,                0,99984.97009277344
13.65,      -0.28487599,       0.38310909,      -9.96083634,   -0.01745329252,                0,    0.01745329252,99984.60388183594
13.75,      -0.26522937,       0.36346247,      -9.96083634,   -0.01745329252,                0,    0.03490658504,99984.23004150391
13.81,      -0.28487599,       0.37328578,      -9.95101303,                0,                0,    0.01745329252,99983.87145996094
13.88,      -0.27505268,       0.37328578,      -9.96083634,                0,   -0.01745329252,    0.01745329252,99983.49761962891
13.97,       -0.27505268,        0.37328578,-9.941189720000001,                 0,    -0.03490658504,     0.01745329252, 99983.13140869141
14.05,       -0.27505268,        0.38310909,-9.941189720000001,                 0,    -0.01745329252,     0.01745329252, 99982.77282714844
14.1,       -0.28487599,        0.38310909,-9.931366410000001,                 0,    -0.01745329252,     0.01745329252, 99982.39898681641
14.18,       -0.28487599,        0.37328578,-9.941189720000001,     0.01745329252,    -0.01745329252,                 0, 99982.01751708984
14.26,       -0.28487599,        0.36346247,-9.931366410000001,     0.01745329252,    -0.01745329252,     0.01745329252, 99981.64367675781
14.31,       -0.26522937,        0.36346247,-9.931366410000001,                 0,    -0.01745329252,     0.01745329252, 99981.26220703125
14.36,       -0.27505268,        0.37328578,-9.921543099999999,     0.01745329252,    -0.03490658504,     0.03490658504, 99980.89599609375
14.42,      -0.28487599,       0.37328578,      -9.90189648,    0.01745329252,   -0.03490658504,    0.01745329252,99980.49926757812
14.5,       -0.27505268,        0.38310909,-9.911719789999999,     0.01745329252,    -0.03490658504,     0.01745329252, 99980.12542724609
14.6,       -0.28487599,        0.37328578,-9.921543099999999,     0.01745329252,    -0.01745329252,     0.01745329252, 99979.75158691406
14.64,       -0.27505268,        0.37328578,-9.921543099999999,     0.01745329252,    -0.01745329252,     0.01745329252, 99979.38537597656
14.71,        -0.2946993,        0.36346247,-9.911719789999999,     0.03490658504,                 0,     0.01745329252, 99978.98864746094
14.75,       -0.28487599,        0.38310909,-9.921543099999999,     0.05235987756,    -0.01745329252,     0.01745329252, 99978.59954833984
14.83,      -0.28487599,       0.35363916,      -9.90189648,    0.03490658504,                0,    0.01745329252,99978.21044921875
14.93,      -0.28487599,       0.37328578,      -9.89207317,    0.01745329252,                0,    0.01745329252,99977.82897949219
15.02,      -0.25540606,       0.35363916,      -9.89207317,    0.03490658504,                0,    0.01745329252,99977.45513916016
15.11,       -0.27505268,        0.37328578,-9.911719789999999,     0.03490658504,                 0,                 0, 99977.05841064453
15.21,      -0.28487599,       0.37328578,      -9.89207317,    0.01745329252,                0,    0.01745329252,99976.66168212891
15.3,      -0.27505268,       0.37328578,      -9.89207317,    0.01745329252,                0,    0.03490658504,99976.27258300781
15.38,      -0.27505268,       0.38310909,      -9.89207317,    0.03490658504,                0,    0.01745329252,99975.89111328125
15.46,      -0.27505268,       0.36346247,      -9.90189648,    0.01745329252,                0,                0,99975.49438476562
15.52,        -0.2946993,        0.37328578,-9.911719789999999,     0.01745329252,                 0,     0.01745329252, 99975.10528564453
15.59,      -0.26522937,       0.36346247,      -9.90189648,    0.01745329252,                0,    0.01745329252,99974.70855712891
15.68,      -0.27505268,       0.38310909,      -9.89207317,    0.01745329252,    0.01745329252,                0,99974.31182861328
15.76,      -0.27505268,       0.37328578,      -9.89207317,                0,                0,    0.01745329252,99973.93035888672
15.85,      -0.28487599,       0.36346247,      -9.90189648,                0,                0,                0,99973.53363037109
15.92,      -0.30452261,       0.36346247,      -9.89207317,    0.01745329252,    0.01745329252,    0.01745329252,99973.12164306641
16,       -0.28487599,        0.37328578,-9.921543099999999,     0.01745329252,     0.01745329252,     0.01745329252, 99972.73254394531
16.1,       -0.28487599,        0.37328578,-9.911719789999999,                 0,     0.01745329252,     0.01745329252, 99972.33581542969
16.19,      -0.26522937,       0.37328578,      -9.88224986,                0,    0.01745329252,    0.01745329252,99971.93908691406
16.24,       -0.28487599,        0.36346247,-9.911719789999999,    -0.01745329252,     0.01745329252,     0.01745329252, 99971.52709960938
16.32,       -0.28487599,        0.38310909,-9.921543099999999,                 0,     0.01745329252,     0.01745329252, 99971.12274169922
16.38,      -0.26522937,       0.37328578,      -9.89207317,                0,    0.03490658504,                0,99970.72601318359
16.47,       -0.27505268,        0.37328578,-9.911719789999999,    -0.01745329252,                 0,     0.01745329252, 99970.32165527344
16.55,       -0.27505268,        0.37328578,-9.931366410000001,    -0.01745329252,     0.01745329252,     0.01745329252, 99969.91729736328
16.64,       -0.28487599,        0.36346247,-9.921543099999999,                 0,     0.01745329252,     0.01745329252, 99969.50531005859
16.73,       -0.28487599,         0.3929324,-9.921543099999999,    -0.01745329252,     0.01745329252,     0.01745329252, 99969.10858154297
16.78,       -0.28487599,        0.38310909,-9.931366410000001,    -0.01745329252,                 0,                 0, 99968.70422363281
16.87,       -0.28487599,        0.35363916,-9.921543099999999,    -0.01745329252,                 0,     0.01745329252, 99968.29223632812
16.96,      -0.28487599,       0.37328578,      -9.90189648,   -0.05235987756,                0,    0.03490658504,99967.88787841797
17.06,       -0.28487599,        0.36346247,-9.931366410000001,    -0.03490658504,     0.01745329252,     0.03490658504, 99967.47589111328
17.13,       -0.26522937,        0.38310909,-9.911719789999999,    -0.03490658504,                 0,     0.03490658504, 99967.06390380859
17.2,       -0.26522937,        0.38310909,-9.931366410000001,    -0.05235987756,                 0,     0.01745329252, 99966.64428710938
17.27,       -0.28487599,        0.37328578,-9.931366410000001,    -0.05235987756,                 0,     0.01745329252, 99966.22467041016
17.33,       -0.28487599,        0.38310909,-9.931366410000001,    -0.03490658504,                 0,     0.01745329252, 99965.80505371094
17.4,       -0.28487599,        0.36346247,-9.921543099999999,    -0.03490658504,                 0,                 0, 99965.40069580078
17.48,        -0.2946993,        0.36346247,-9.921543099999999,    -0.01745329252,                 0,     0.03490658504, 99964.97344970703
17.57,       -0.28487599,        0.35363916,-9.921543099999999,    -0.01745329252,                 0,     0.03490658504, 99964.54620361328
17.66,      -0.27505268,        0.3929324,      -9.90189648,   -0.01745329252,                0,                0,99964.12658691406
17.75,       -0.27505268,        0.36346247,-9.921543099999999,    -0.03490658504,                 0,     0.01745329252, 99963.69934082031
17.84,       -0.26522937,        0.38310909,-9.911719789999999,    -0.01745329252,    -0.01745329252,     0.01745329252, 99963.27972412109
17.93,       -0.27505268,         0.3929324,-9.911719789999999,                 0,                 0,     0.01745329252, 99962.85247802734
17.98,       -0.26522937,        0.34381585,-9.911719789999999,    -0.03490658504,                 0,     0.03490658504, 99962.41760253906
18.07,      -0.27505268,       0.38310909,      -9.89207317,   -0.01745329252,                0,    0.01745329252,99961.99798583984
18.15,       -0.2946993,       0.38310909,      -9.89207317,                0,                0,    0.03490658504,99961.55548095703
18.22,      -0.27505268,       0.37328578,      -9.89207317,   -0.03490658504,   -0.01745329252,    0.01745329252,99961.13586425781
18.31,      -0.28487599,       0.36346247,      -9.90189648,   -0.01745329252,   -0.01745329252,    0.03490658504,99960.70098876953
18.42,      -0.28487599,       0.38310909,      -9.89207317,                0,   -0.01745329252,    0.01745329252,99960.28900146484
18.49,      -0.26522937,       0.37328578,      -9.88224986,                0,   -0.01745329252,    0.01745329252,99959.85412597656
18.58,      -0.28487599,        0.3929324,      -9.86260324,                0,   -0.01745329252,    0.03490658504,99959.41925048828
18.68,      -0.30452261,       0.35363916,      -9.87242655,    0.01745329252,                0,    0.03490658504,99958.99200439453
18.79,       -0.28487599,        0.38310909,-9.852779930000001,                 0,    -0.01745329252,     0.01745329252, 99958.56475830078
18.84,       -0.27505268,        0.36346247,-9.852779930000001,     0.01745329252,    -0.03490658504,                 0,  99958.1298828125
18.91,      -0.28487599,       0.38310909,      -9.86260324,                0,   -0.01745329252,    0.03490658504,99957.69500732422
18.99,       -0.30452261,         0.3929324,-9.852779930000001,                 0,    -0.01745329252,     0.01745329252, 99957.25250244141
19.08,       -0.28487599,        0.37328578,-9.842956620000001,     0.01745329252,    -0.01745329252,     0.01745329252, 99956.83288574219
19.17,       -0.27505268,        0.35363916,-9.833133310000001,                 0,    -0.01745329252,     0.03490658504, 99956.41326904297
19.26,       -0.26522937,        0.36346247,-9.833133310000001,     0.03490658504,                 0,     0.03490658504, 99955.97076416016
19.32,       -0.27505268,        0.38310909,-9.833133310000001,     0.01745329252,                 0,     0.03490658504, 99955.54351806641
19.36,       -0.28487599,        0.38310909,-9.833133310000001,     0.03490658504,                 0,     0.01745329252, 99955.10864257812
19.45,       -0.27505268,        0.37328578,-9.833133310000001,     0.05235987756,                 0,     0.01745329252, 99954.68139648438
19.54,       -0.28487599,        0.37328578,-9.823309999999999,     0.03490658504,                 0,     0.01745329252, 99954.23889160156
19.64,      -0.26522937,       0.38310909,      -9.80366338,    0.01745329252,                0,    0.01745329252,99953.81927490234
19.69,       -0.28487599,        0.37328578,-9.833133310000001,     0.03490658504,                 0,     0.01745329252, 99953.38439941406
19.77,       -0.27505268,        0.36346247,-9.833133310000001,     0.01745329252,                 0,     0.01745329252, 99952.94952392578
19.83,      -0.26522937,       0.36346247,      -9.81348669,    0.01745329252,                0,    0.01745329252,99952.52227783203
19.88,      -0.26522937,       0.35363916,      -9.79384007,    0.01745329252,                0,    0.03490658504,99952.09503173828
19.97,      -0.28487599,       0.37328578,      -9.80366338,    0.03490658504,                0,    0.03490658504,99951.67541503906
20.02,       -0.27505268,        0.36346247,-9.833133310000001,     0.03490658504,                 0,                 0, 99951.24053955078
20.1,      -0.28487599,       0.37328578,      -9.80366338,    0.03490658504,                0,    0.01745329252,99950.79803466797
20.2,      -0.28487599,       0.37328578,      -9.81348669,                0,                0,    0.03490658504,99950.37078857422
20.29,       -0.26522937,        0.37328578,-9.833133310000001,     0.03490658504,     0.01745329252,     0.03490658504, 99949.93591308594
20.34,      -0.27505268,       0.36346247,      -9.80366338,                0,    0.01745329252,    0.05235987756,99949.50866699219
20.4,      -0.28487599,        0.3929324,      -9.81348669,                0,                0,    0.01745329252,99949.06616210938
20.47,      -0.28487599,       0.40275571,      -9.80366338,    0.01745329252,    0.03490658504,    0.01745329252,99948.63891601562
20.54,       -0.25540606,        0.36346247,-9.823309999999999,                 0,     0.03490658504,     0.01745329252, 99948.21166992188
20.61,      -0.27505268,       0.35363916,      -9.80366338,                0,    0.01745329252,    0.01745329252,99947.78442382812
20.7,      -0.28487599,       0.37328578,      -9.80366338,                0,    0.01745329252,    0.03490658504,99947.33428955078
20.78,      -0.28487599,       0.38310909,      -9.80366338,   -0.01745329252,    0.01745329252,    0.01745329252,99946.92230224609
20.87,       -0.2946993,       0.37328578,      -9.81348669,                0,    0.01745329252,    0.03490658504,99946.47979736328
20.96,       -0.27505268,        0.38310909,-9.823309999999999,    -0.01745329252,     0.01745329252,     0.01745329252, 99946.05255126953
21.04,      -0.26522937,       0.37328578,      -9.79384007,   -0.03490658504,                0,    0.01745329252,99945.61004638672
21.13,      -0.26522937,       0.37328578,      -9.81348669,   -0.03490658504,                0,    0.03490658504,99945.18280029297
21.22,      -0.28487599,        0.3929324,      -9.80366338,   -0.01745329252,    0.01745329252,    0.03490658504,99944.75555419922
21.29,    -0.2946993,    0.38310909,   -9.81348669,-0.03490658504, 0.01745329252, 0.01745329252, 99944.3359375
21.39,       -0.27505268,        0.36346247,-9.823309999999999,    -0.01745329252,                 0,     0.01745329252, 99943.90106201172
21.45,     -0.27505268,      0.37328578,     -9.80366338,  -0.05235987756,               0,   0.03490658504,99943.4814453125
21.53,       -0.26522937,        0.37328578,-9.823309999999999,    -0.03490658504,     0.01745329252,     0.01745329252, 99943.05419921875
21.62,       -0.27505268,        0.36346247,-9.833133310000001,    -0.03490658504,     0.01745329252,     0.01745329252,   99942.626953125
21.7,       -0.27505268,        0.37328578,-9.823309999999999,    -0.05235987756,     0.01745329252,     0.01745329252, 99942.19970703125
21.79,       -0.27505268,        0.37328578,-9.833133310000001,    -0.03490658504,                 0,     0.01745329252, 99941.78009033203
21.88,       -0.26522937,        0.36346247,-9.823309999999999,    -0.05235987756,                 0,     0.03490658504, 99941.36047363281
21.97,       -0.27505268,        0.37328578,-9.833133310000001,    -0.05235987756,                 0,     0.03490658504, 99940.93322753906
22.03,       -0.27505268,        0.35363916,-9.833133310000001,    -0.03490658504,                 0,     0.03490658504, 99940.49835205078
22.09,       -0.27505268,        0.37328578,-9.842956620000001,    -0.05235987756,                 0,                 0, 99940.08636474609
22.17,      -0.27505268,        0.3929324,      -9.86260324,   -0.05235987756,   -0.01745329252,    0.01745329252,99939.64385986328
22.27,    -0.27505268,     0.37328578,    -9.86260324, -0.03490658504,              0,  0.01745329252,99939.208984375
22.32,       -0.28487599,        0.37328578,-9.833133310000001,    -0.03490658504,                 0,     0.05235987756, 99938.78936767578
22.42,       -0.27505268,        0.38310909,-9.842956620000001,    -0.03490658504,    -0.01745329252,     0.03490658504, 99938.36212158203
22.49,       -0.2946993,       0.37328578,      -9.86260324,   -0.03490658504,                0,    0.03490658504,99937.93487548828
22.58,        -0.2946993,        0.36346247,-9.852779930000001,    -0.01745329252,    -0.01745329252,     0.03490658504, 99937.50762939453
22.67,      -0.27505268,       0.38310909,      -9.87242655,   -0.03490658504,                0,    0.03490658504,99937.09564208984
22.73,      -0.28487599,       0.37328578,      -9.87242655,                0,                0,    0.03490658504,99936.65313720703
22.82,      -0.28487599,       0.38310909,      -9.86260324,                0,   -0.01745329252,    0.03490658504,99936.23352050781
22.91,       -0.26522937,        0.37328578,-9.852779930000001,    -0.01745329252,                 0,     0.01745329252, 99935.79864501953
22.99,       -0.28487599,        0.35363916,-9.852779930000001,    -0.01745329252,                 0,     0.01745329252, 99935.37139892578
23.04,      -0.2946993,      0.36346247,     -9.86260324,  -0.01745329252,               0,   0.01745329252,99934.9365234375
23.12,      -0.27505268,       0.36346247,      -9.87242655,                0,                0,    0.03490658504,99934.52453613281
23.21,       -0.27505268,        0.36346247,-9.852779930000001,    -0.01745329252,                 0,     0.01745329252, 99934.08966064453
23.28,      -0.28487599,       0.38310909,      -9.86260324,   -0.01745329252,   -0.01745329252,    0.03490658504,99933.64715576172
23.35,      -0.30452261,       0.37328578,      -9.86260324,   -0.01745329252,                0,    0.03490658504,99933.21990966797
23.4,      -0.27505268,       0.38310909,      -9.87242655,                0,                0,    0.03490658504,99932.79266357422
23.49,      -0.27505268,       0.36346247,      -9.88224986,   -0.01745329252,                0,    0.03490658504,99932.35015869141
23.58,       -0.30452261,        0.37328578,-9.852779930000001,                 0,     0.01745329252,     0.01745329252, 99931.91528320312
23.66,      -0.28487599,       0.37328578,      -9.86260324,   -0.01745329252,    0.01745329252,    0.01745329252,99931.48803710938
23.76,       -0.2946993,       0.38310909,      -9.86260324,   -0.01745329252,                0,    0.03490658504,99931.05316162109
23.83,       -0.28487599,        0.38310909,-9.852779930000001,    -0.01745329252,                 0,     0.03490658504, 99930.61065673828
23.89,      -0.28487599,       0.34381585,      -9.86260324,                0,    0.01745329252,    0.01745329252,99930.18341064453
23.98,       -0.27505268,        0.37328578,-9.852779930000001,    -0.01745329252,     0.01745329252,     0.03490658504, 99929.74853515625
24.07,       -0.28487599,        0.37328578,-9.833133310000001,                 0,                 0,     0.01745329252, 99929.31365966797
24.16,       -0.26522937,        0.35363916,-9.842956620000001,                 0,                 0,     0.03490658504, 99928.88641357422
24.24,       -0.26522937,        0.35363916,-9.833133310000001,                 0,                 0,     0.01745329252, 99928.44390869141
24.32,       -0.27505268,        0.36346247,-9.842956620000001,    -0.01745329252,                 0,     0.03490658504, 99928.00903320312
24.42,       -0.28487599,        0.37328578,-9.823309999999999,                 0,                 0,     0.03490658504, 99927.56652832031
24.5,       -0.26522937,        0.36346247,-9.833133310000001,                 0,                 0,     0.03490658504, 99927.15454101562
24.59,        -0.2946993,        0.37328578,-9.823309999999999,                 0,                 0,     0.01745329252, 99926.71966552734
24.68,        -0.2946993,        0.37328578,-9.833133310000001,                 0,                 0,     0.03490658504, 99926.29241943359
24.73,       -0.28487599,        0.37328578,-9.842956620000001,                 0,                 0,     0.03490658504, 99925.84991455078
24.83,        -0.2946993,        0.34381585,-9.833133310000001,                 0,                 0,     0.03490658504, 99925.42266845703
24.91,      -0.27505268,       0.35363916,      -9.81348669,    0.01745329252,                0,    0.03490658504,99924.98779296875
25,       -0.28487599,        0.37328578,-9.823309999999999,     0.03490658504,                 0,     0.03490658504, 99924.55291748047
25.09,       -0.28487599,        0.36346247,-9.823309999999999,     0.01745329252,                 0,     0.03490658504, 99924.11804199219
25.17,        -0.2946993,        0.37328578,-9.833133310000001,     0.03490658504,                 0,     0.03490658504, 99923.66027832031
25.26,        -0.2946993,        0.36346247,-9.833133310000001,                 0,    -0.01745329252,     0.03490658504, 99923.24066162109
25.35,       -0.26522937,        0.36346247,-9.852779930000001,     0.01745329252,    -0.01745329252,     0.01745329252, 99922.80578613281
25.42,       -0.26522937,        0.36346247,-9.842956620000001,     0.01745329252,                 0,     0.03490658504, 99922.37091064453
25.5,      -0.26522937,       0.36346247,      -9.86260324,    0.01745329252,   -0.01745329252,    0.03490658504,99921.93603515625
25.57,       -0.27505268,        0.36346247,-9.823309999999999,     0.01745329252,                 0,     0.03490658504, 99921.50115966797
25.64,       -0.2946993,        0.3929324,      -9.86260324,    0.01745329252,                0,    0.05235987756,99921.08154296875
25.74,      -0.28487599,       0.37328578,      -9.86260324,    0.01745329252,                0,    0.03490658504,99920.63140869141
25.8,       -0.28487599,        0.37328578,-9.833133310000001,                 0,    -0.03490658504,     0.05235987756, 99920.19653320312
25.89,       -0.28487599,        0.38310909,-9.842956620000001,     0.01745329252,                 0,     0.01745329252, 99919.75402832031
25.98,      -0.28487599,       0.35363916,      -9.86260324,                0,                0,    0.03490658504,99919.31915283203
26.07,       -0.26522937,        0.38310909,-9.852779930000001,     0.01745329252,                 0,     0.03490658504, 99918.88427734375
26.16,      -0.28487599,       0.35363916,      -9.87242655,                0,                0,                0,99918.44177246094
26.25,      -0.27505268,       0.36346247,      -9.87242655,                0,                0,    0.05235987756,99918.00689697266
26.33,      -0.27505268,       0.36346247,      -9.87242655,                0,                0,    0.03490658504,99917.57965087891
26.41,      -0.26522937,       0.36346247,      -9.88224986,                0,                0,    0.05235987756,99917.13714599609
26.51,      -0.28487599,       0.37328578,      -9.87242655,                0,   -0.01745329252,    0.03490658504,99916.70227050781
26.61,      -0.27505268,       0.37328578,      -9.89207317,   -0.01745329252,   -0.01745329252,    0.03490658504,99916.26739501953
26.7,      -0.27505268,       0.37328578,      -9.87242655,   -0.03490658504,   -0.01745329252,    0.03490658504,99915.82489013672
26.78,      -0.27505268,       0.37328578,      -9.89207317,   -0.03490658504,                0,    0.01745329252,99915.39764404297
26.88,      -0.28487599,       0.38310909,      -9.88224986,   -0.01745329252,   -0.01745329252,    0.01745329252,99914.95513916016
26.97,      -0.27505268,       0.37328578,      -9.89207317,   -0.01745329252,                0,    0.03490658504,99914.50500488281
27.05,       -0.2946993,       0.37328578,      -9.90189648,                0,                0,    0.05235987756,99914.08538818359
27.15,       -0.27505268,         0.3929324,-9.911719789999999,    -0.03490658504,                 0,     0.01745329252, 99913.64288330078
27.26,       -0.28487599,        0.35363916,-9.921543099999999,    -0.03490658504,                 0,     0.05235987756, 99913.17749023438
27.34,       -0.27505268,        0.36346247,-9.911719789999999,    -0.03490658504,                 0,     0.05235987756, 99912.74261474609
27.43,       -0.26522937,        0.36346247,-9.911719789999999,                 0,                 0,     0.03490658504, 99912.30010986328
27.53,       -0.26522937,        0.36346247,-9.911719789999999,    -0.03490658504,                 0,     0.03490658504, 99911.84234619141
27.62,      -0.28487599,       0.36346247,      -9.95101303,   -0.03490658504,                0,    0.03490658504,99911.39984130859
27.72,       -0.27505268,        0.36346247,-9.931366410000001,    -0.03490658504,                 0,     0.03490658504, 99910.94970703125
27.81,       -0.27505268,        0.36346247,-9.931366410000001,    -0.03490658504,                 0,     0.03490658504, 99910.50720214844
27.9,       -0.28487599,         0.3929324,-9.941189720000001,    -0.03490658504,                 0,     0.05235987756, 99910.06469726562
27.99,       -0.27505268,        0.36346247,-9.941189720000001,    -0.01745329252,     0.01745329252,     0.03490658504, 99909.59930419922
28.06,      -0.28487599,       0.36346247,      -9.95101303,   -0.01745329252,                0,    0.05235987756,99909.14916992188
28.14,       -0.27505268,        0.35363916,-9.941189720000001,    -0.01745329252,                 0,     0.01745329252, 99908.69903564453
28.21,      -0.27505268,       0.36346247,      -9.95101303,                0,                0,    0.05235987756,99908.23364257812
28.31,       -0.27505268,        0.36346247,-9.941189720000001,    -0.03490658504,     0.01745329252,     0.05235987756, 99907.76824951172
28.36,       -0.28487599,        0.37328578,-9.941189720000001,                 0,                 0,     0.03490658504, 99907.31048583984
28.44,      -0.25540606,       0.36346247,      -9.95101303,                0,                0,    0.03490658504,99906.86798095703
28.53,       -0.26522937,        0.37328578,-9.921543099999999,                 0,                 0,     0.05235987756, 99906.39495849609
28.62,       -0.27505268,        0.36346247,-9.941189720000001,     0.01745329252,     0.01745329252,     0.01745329252, 99905.92956542969
28.68,      -0.28487599,       0.36346247,      -9.95101303,                0,    0.01745329252,    0.01745329252,99905.47180175781
28.75,      -0.28487599,       0.38310909,      -9.95101303,                0,    0.01745329252,    0.03490658504,99904.99114990234
28.84,      -0.27505268,       0.35363916,      -9.96083634,    0.01745329252,    0.01745329252,    0.03490658504,99904.51812744141
28.93,       -0.28487599,        0.37328578,-9.931366410000001,                 0,     0.01745329252,     0.03490658504, 99904.06036376953
29,      -0.28487599,       0.36346247,      -9.96083634,                0,    0.03490658504,    0.01745329252,99903.57971191406
29.08,      -0.28487599,       0.37328578,      -9.95101303,    0.01745329252,    0.01745329252,    0.03490658504,99903.09143066406
29.15,      -0.28487599,       0.37328578,      -9.95101303,                0,    0.01745329252,    0.03490658504,99902.63366699219
29.24,      -0.26522937,       0.36346247,      -9.95101303,    0.01745329252,                0,    0.03490658504,99902.13775634766
29.32,       -0.28487599,        0.37328578,-9.941189720000001,                 0,     0.01745329252,     0.03490658504, 99901.67236328125
29.39,      -0.28487599,       0.37328578,      -9.96083634,                0,                0,    0.03490658504,99901.19171142578
29.49,       -0.26522937,        0.37328578,-9.941189720000001,                 0,     0.01745329252,     0.03490658504, 99900.71105957031
29.55,       -0.27505268,        0.36346247,-9.941189720000001,                 0,                 0,     0.03490658504, 99900.22277832031
29.64,      -0.28487599,       0.36346247,      -9.95101303,                0,                0,    0.05235987756,99899.74212646484
29.7,      -0.27505268,       0.38310909,      -9.95101303,   -0.01745329252,                0,    0.05235987756,99899.27673339844
29.8,       -0.28487599,        0.37328578,-9.931366410000001,                 0,                 0,     0.01745329252, 99898.78082275391
29.88,      -0.27505268,       0.37328578,      -9.95101303,                0,                0,    0.05235987756,99898.26965332031
29.95,       -0.28487599,        0.36346247,-9.941189720000001,                 0,                 0,     0.03490658504, 99897.78900146484
30,       -0.27505268,        0.38310909,-9.941189720000001,     0.01745329252,    -0.01745329252,     0.03490658504, 99897.29309082031
30.08,      -0.27505268,       0.37328578,      -9.95101303,                0,   -0.03490658504,    0.03490658504,99896.81243896484
30.15,      -0.28487599,       0.38310909,      -9.95101303,                0,   -0.03490658504,    0.05235987756,99896.30889892578
30.24,       -0.28487599,        0.38310909,-9.921543099999999,                 0,    -0.03490658504,     0.03490658504, 99895.80535888672
30.33,       -0.27505268,        0.40275571,-9.941189720000001,    -0.01745329252,    -0.01745329252,     0.05235987756, 99895.30181884766
30.42,       -0.28487599,        0.36346247,-9.931366410000001,                 0,    -0.03490658504,     0.03490658504, 99894.80590820312
30.51,       -0.27505268,        0.34381585,-9.941189720000001,                 0,    -0.03490658504,     0.05235987756, 99894.30236816406
30.61,      -0.30452261,       0.37328578,      -9.95101303,                0,   -0.01745329252,    0.05235987756,99893.80645751953
30.68,      -0.26522937,       0.36346247,      -9.95101303,   -0.01745329252,   -0.01745329252,    0.03490658504,99893.28765869141
30.77,      -0.27505268,       0.38310909,      -9.96083634,                0,   -0.01745329252,    0.03490658504,99892.78411865234
30.79,      -0.27505268,       0.36346247,      -9.97065965,                0,   -0.03490658504,    0.03490658504,99892.28057861328
30.88,      -0.27505268,       0.38310909,      -9.99030627,                0,   -0.01745329252,    0.03490658504,99891.75415039062
30.97,       -0.27505268,        0.36346247,-9.941189720000001,                 0,    -0.03490658504,     0.05235987756, 99891.25061035156
31.06,      -0.28487599,       0.38310909,      -9.95101303,                0,   -0.01745329252,    0.01745329252,99890.73181152344
31.15,      -0.27505268,       0.35363916,      -9.97065965,                0,                0,    0.03490658504,99890.22827148438
31.2,      -0.28487599,       0.36346247,      -9.98048296,                0,   -0.01745329252,    0.05235987756,99889.69421386719
31.28,      -0.27505268,       0.36346247,      -9.97065965,    0.01745329252,   -0.03490658504,    0.05235987756,99889.19067382812
31.36,      -0.28487599,       0.37328578,      -9.95101303,                0,   -0.01745329252,    0.03490658504,99888.65661621094
31.39,      -0.26522937,       0.37328578,      -9.97065965,                0,   -0.01745329252,    0.01745329252,99888.13781738281
31.48,      -0.26522937,       0.36346247,      -9.96083634,                0,                0,    0.05235987756,99887.61901855469
31.59,      -0.28487599,       0.38310909,      -9.95101303,                0,                0,    0.05235987756,99887.10021972656
31.67,      -0.26522937,       0.37328578,      -9.96083634,   -0.01745329252,                0,    0.05235987756,99886.55090332031
31.72,      -0.28487599,       0.38310909,      -9.98048296,                0,                0,    0.03490658504,99886.03210449219
31.81,      -0.28487599,       0.36346247,      -9.96083634,                0,                0,    0.03490658504,99885.49041748047
31.87,      -0.28487599,       0.36346247,      -9.96083634,                0,                0,    0.03490658504,99884.96398925781
31.95,      -0.28487599,       0.37328578,      -9.97065965,                0,                0,    0.03490658504,99884.42993164062
32.05,      -0.27505268,       0.36346247,      -9.99030627,                0,   -0.01745329252,    0.05235987756,99883.88824462891
32.11,      -0.27505268,       0.37328578,      -9.96083634,                0,                0,    0.05235987756,99883.36181640625
32.18,      -0.26522937,       0.36346247,      -9.97065965,   -0.01745329252,                0,    0.06981317008,99882.80487060547
32.25,      -0.27505268,       0.36346247,      -9.95101303,                0,                0,    0.03490658504,99882.26318359375
32.3,       -0.26522937,        0.37328578,-9.941189720000001,                 0,                 0,     0.01745329252, 99881.73675537109
32.38,       -0.27505268,        0.36346247,-9.941189720000001,                 0,                 0,     0.05235987756, 99881.17980957031
32.48,       -0.27505268,        0.38310909,-9.931366410000001,                 0,                 0,     0.03490658504, 99880.63812255859
32.55,       -0.26522937,        0.37328578,-9.941189720000001,    -0.01745329252,     0.01745329252,     0.03490658504, 99880.09643554688
32.64,       -0.27505268,        0.37328578,-9.931366410000001,                 0,                 0,     0.03490658504, 99879.55474853516
32.67,       -0.27505268,        0.36346247,-9.921543099999999,                 0,     0.01745329252,     0.05235987756, 99878.99780273438
32.75,      -0.28487599,       0.38310909,      -9.95101303,                0,    0.01745329252,    0.03490658504,99878.44848632812
32.84,       -0.27505268,        0.38310909,-9.911719789999999,                 0,                 0,     0.05235987756, 99877.89154052734
32.92,       -0.28487599,        0.37328578,-9.911719789999999,                 0,     0.01745329252,     0.03490658504, 99877.33459472656
33,       -0.27505268,        0.37328578,-9.911719789999999,                 0,                 0,     0.03490658504, 99876.77001953125
33.1,      -0.25540606,       0.36346247,      -9.89207317,                0,    0.01745329252,    0.03490658504,99876.24359130859
33.15,       -0.27505268,        0.38310909,-9.911719789999999,                 0,     0.03490658504,     0.03490658504, 99875.67138671875
33.21,      -0.28487599,       0.37328578,      -9.88224986,                0,                0,    0.06981317008,99875.11444091797
33.29,      -0.26522937,       0.35363916,      -9.89207317,    0.01745329252,    0.01745329252,    0.05235987756,99874.56512451172
33.4,      -0.27505268,       0.37328578,      -9.87242655,    0.01745329252,    0.01745329252,    0.03490658504,99874.00817871094
33.44,       -0.2946993,       0.38310909,      -9.87242655,    0.01745329252,    0.05235987756,    0.05235987756,99873.42834472656
33.49,      -0.27505268,       0.34381585,      -9.88224986,    0.03490658504,    0.03490658504,    0.03490658504,99872.87139892578
33.57,       -0.28487599,        0.37328578,-9.852779930000001,     0.01745329252,     0.01745329252,     0.05235987756,   99872.314453125
33.65,       -0.27505268,        0.37328578,-9.852779930000001,     0.01745329252,     0.01745329252,     0.03490658504, 99871.76513671875
33.75,       -0.26522937,        0.35363916,-9.852779930000001,                 0,     0.03490658504,     0.03490658504, 99871.19293212891
33.81,       -0.28487599,        0.36346247,-9.833133310000001,     0.01745329252,     0.05235987756,     0.03490658504, 99870.63598632812
33.87,       -0.26522937,        0.36346247,-9.852779930000001,     0.03490658504,     0.03490658504,     0.03490658504, 99870.07141113281
33.95,     -0.27505268,      0.36346247,     -9.81348669,   0.03490658504,   0.01745329252,   0.03490658504,99869.5068359375
34.04,       -0.27505268,        0.37328578,-9.823309999999999,     0.05235987756,     0.03490658504,     0.05235987756, 99868.94989013672
34.12,       -0.27505268,        0.37328578,-9.823309999999999,     0.05235987756,     0.01745329252,     0.05235987756, 99868.38531494141
34.2,      -0.25540606,       0.37328578,      -9.79384007,    0.01745329252,    0.01745329252,    0.05235987756,99867.82073974609
34.3,      -0.26522937,       0.37328578,      -9.80366338,    0.03490658504,    0.01745329252,    0.05235987756,99867.25616455078
34.38,      -0.27505268,       0.36346247,      -9.80366338,    0.03490658504,                0,    0.03490658504,99866.70684814453
34.46,      -0.27505268,        0.3929324,      -9.78401676,    0.03490658504,                0,    0.05235987756,99866.14227294922
34.54,       -0.2946993,       0.37328578,      -9.78401676,    0.01745329252,    0.01745329252,    0.05235987756,99865.57006835938
34.64,      -0.26522937,       0.38310909,      -9.77419345,    0.03490658504,    0.01745329252,    0.05235987756,99865.01312255859
34.7,      -0.26522937,       0.37328578,      -9.77419345,    0.01745329252,    0.01745329252,    0.03490658504,99864.46380615234
34.8,      -0.28487599,       0.38310909,      -9.77419345,    0.01745329252,                0,    0.05235987756,99863.89923095703
34.87,      -0.28487599,       0.38310909,      -9.77419345,    0.01745329252,    0.01745329252,    0.05235987756,99863.34228515625
34.96,      -0.28487599,       0.37328578,      -9.77419345,    0.01745329252,                0,    0.05235987756,99862.78533935547
35.06,      -0.26522937,        0.3929324,      -9.78401676,                0,                0,    0.03490658504,99862.25128173828
35.14,      -0.2946993,      0.37328578,     -9.76437014,               0,   0.01745329252,   0.01745329252,99861.6943359375
35.2,      -0.27505268,       0.37328578,      -9.76437014,                0,    0.01745329252,    0.06981317008,99861.14501953125
35.29,       -0.28487599,        0.36346247,-9.744723520000001,                 0,     0.01745329252,     0.05235987756,   99860.595703125
35.38,        -0.2946993,        0.35363916,-9.754546830000001,                 0,     0.01745329252,     0.05235987756, 99860.03875732422
35.48,      -0.28487599,       0.38310909,      -9.76437014,                0,    0.01745329252,    0.05235987756,99859.48181152344
35.57,      -0.28487599,       0.38310909,      -9.76437014,                0,    0.01745329252,    0.05235987756,99858.93249511719
35.63,        -0.2946993,        0.37328578,-9.754546830000001,                 0,                 0,     0.05235987756, 99858.39080810547
35.69,        -0.2946993,        0.35363916,-9.744723520000001,                 0,                 0,     0.05235987756, 99857.82623291016
35.77,      -0.27505268,       0.36346247,      -9.76437014,                0,                0,    0.05235987756,99857.27691650391
35.85,      -0.28487599,       0.36346247,      -9.76437014,                0,                0,    0.05235987756,99856.74285888672
35.95,        -0.2946993,        0.36346247,-9.754546830000001,                 0,                 0,     0.03490658504, 99856.18591308594
36.03,       -0.28487599,        0.37328578,-9.744723520000001,    -0.01745329252,                 0,     0.05235987756, 99855.64422607422
36.07,       -0.28487599,        0.37328578,-9.754546830000001,                 0,                 0,     0.05235987756, 99855.09490966797
36.16,      -0.28487599,       0.37328578,      -9.77419345,   -0.01745329252,                0,    0.05235987756,99854.54559326172
36.24,      -0.28487599,        0.3929324,      -9.76437014,   -0.03490658504,                0,    0.05235987756,99854.01153564453
36.33,      -0.28487599,       0.37328578,      -9.77419345,   -0.01745329252,   -0.01745329252,    0.03490658504,99853.47747802734
36.43,      -0.27505268,       0.37328578,      -9.77419345,   -0.01745329252,                0,    0.05235987756,99852.93579101562
36.52,       -0.2946993,       0.37328578,      -9.78401676,   -0.03490658504,   -0.03490658504,    0.03490658504,99852.40173339844
36.62,       -0.2946993,       0.35363916,      -9.77419345,   -0.01745329252,   -0.01745329252,    0.03490658504,99851.86767578125
36.7,      -0.27505268,       0.36346247,      -9.77419345,   -0.01745329252,   -0.03490658504,    0.01745329252,99851.32598876953
36.77,      -0.27505268,       0.37328578,      -9.77419345,   -0.03490658504,   -0.01745329252,    0.05235987756,99850.78430175781
36.87,      -0.28487599,       0.37328578,      -9.78401676,   -0.01745329252,   -0.03490658504,    0.05235987756,99850.23498535156
36.96,      -0.27505268,       0.36346247,      -9.77419345,                0,   -0.01745329252,    0.01745329252,99849.71618652344
37.04,      -0.28487599,       0.37328578,      -9.78401676,                0,   -0.01745329252,    0.05235987756,99849.17449951172
37.13,       -0.2946993,       0.36346247,      -9.77419345,   -0.01745329252,   -0.03490658504,    0.05235987756,99848.64807128906
37.21,      -0.27505268,       0.38310909,      -9.79384007,                0,   -0.03490658504,    0.03490658504,99848.10638427734
37.3,      -0.28487599,       0.37328578,      -9.77419345,   -0.01745329252,   -0.01745329252,    0.05235987756,99847.59521484375
37.38,      -0.27505268,       0.37328578,      -9.80366338,                0,   -0.01745329252,    0.05235987756,99847.05352783203
37.41,      -0.27505268,       0.37328578,      -9.79384007,   -0.01745329252,   -0.03490658504,    0.03490658504,99846.54998779297
37.5,      -0.28487599,        0.3929324,      -9.81348669,                0,   -0.01745329252,    0.03490658504,99845.99304199219
37.59,      -0.28487599,       0.37328578,      -9.80366338,                0,   -0.01745329252,    0.05235987756,99845.47424316406
37.68,      -0.27505268,       0.37328578,      -9.79384007,                0,   -0.01745329252,    0.05235987756,99844.94781494141
37.76,      -0.28487599,       0.37328578,      -9.80366338,                0,   -0.03490658504,    0.03490658504,99844.42138671875
37.84,       -0.27505268,        0.35363916,-9.823309999999999,                 0,                 0,     0.03490658504, 99843.88732910156
37.93,       -0.28487599,        0.35363916,-9.823309999999999,                 0,                 0,     0.03490658504, 99843.36090087891
38.01,      -0.28487599,       0.37328578,      -9.79384007,                0,   -0.01745329252,    0.03490658504,99842.83447265625
38.1,      -0.27505268,       0.37328578,      -9.79384007,                0,   -0.01745329252,    0.05235987756,99842.31567382812
38.14,      -0.27505268,       0.38310909,      -9.78401676,                0,                0,    0.05235987756,99841.78161621094
38.22,       -0.28487599,        0.37328578,-9.823309999999999,    -0.01745329252,                 0,     0.05235987756, 99841.26281738281
38.3,      -0.30452261,       0.36346247,      -9.80366338,                0,                0,    0.03490658504,99840.74401855469
38.38,      -0.26522937,       0.38310909,      -9.81348669,                0,   -0.01745329252,    0.03490658504,99840.21759033203
38.45,       -0.27505268,        0.36346247,-9.823309999999999,    -0.01745329252,    -0.01745329252,     0.05235987756, 99839.69879150391
38.53,      -0.28487599,       0.37328578,      -9.80366338,                0,   -0.03490658504,    0.05235987756,99839.17236328125
38.58,       -0.27505268,        0.36346247,-9.823309999999999,                 0,    -0.01745329252,     0.03490658504, 99838.63067626953
38.66,      -0.27505268,       0.37328578,      -9.81348669,                0,   -0.03490658504,    0.01745329252,99838.12713623047
38.71,      -0.27505268,       0.36346247,      -9.81348669,                0,   -0.03490658504,    0.05235987756,99837.60833740234
38.81,       -0.27505268,         0.3929324,-9.833133310000001,    -0.01745329252,    -0.03490658504,     0.01745329252, 99837.08190917969
38.88,      -0.27505268,       0.36346247,      -9.81348669,                0,   -0.01745329252,    0.05235987756,99836.57073974609
38.97,       -0.27505268,        0.37328578,-9.842956620000001,                 0,    -0.01745329252,     0.03490658504, 99836.04431152344
39.06,       -0.2946993,       0.37328578,      -9.80366338,                0,   -0.03490658504,    0.05235987756,99835.53314208984
39.12,       -0.27505268,        0.37328578,-9.833133310000001,                 0,    -0.01745329252,     0.05235987756, 99834.99908447266
39.17,       -0.27505268,        0.37328578,-9.833133310000001,                 0,    -0.01745329252,     0.03490658504, 99834.48791503906
39.26,       -0.25540606,        0.38310909,-9.823309999999999,                 0,    -0.01745329252,     0.05235987756, 99833.95385742188
39.35,      -0.26522937,       0.37328578,      -9.81348669,                0,   -0.01745329252,    0.03490658504,99833.42742919922
39.43,        -0.2946993,        0.38310909,-9.823309999999999,                 0,                 0,     0.05235987756, 99832.93151855469
39.52,       -0.27505268,        0.37328578,-9.842956620000001,    -0.01745329252,                 0,     0.05235987756,  99832.3974609375
39.6,       -0.27505268,        0.38310909,-9.842956620000001,    -0.01745329252,    -0.01745329252,     0.05235987756, 99831.87866210938
39.69,       -0.27505268,        0.36346247,-9.833133310000001,    -0.01745329252,    -0.01745329252,     0.05235987756, 99831.35986328125
39.75,       -0.28487599,        0.35363916,-9.823309999999999,                 0,    -0.01745329252,     0.05235987756, 99830.83343505859
39.83,       -0.28487599,         0.3929324,-9.842956620000001,    -0.01745329252,                 0,     0.03490658504, 99830.31463623047
39.92,        -0.2946993,        0.36346247,-9.852779930000001,    -0.01745329252,                 0,     0.06981317008, 99829.79583740234
40,      -0.28487599,       0.37328578,      -9.86260324,   -0.01745329252,                0,    0.03490658504,99829.26940917969
40.11,      -0.26522937,       0.38310909,      -9.86260324,   -0.01745329252,                0,    0.06981317008,99828.75823974609
40.14,      -0.28487599,       0.38310909,      -9.87242655,                0,                0,    0.03490658504,99828.23944091797
40.23,      -0.27505268,       0.35363916,      -9.88224986,                0,                0,    0.05235987756,99827.71301269531
40.29,      -0.27505268,       0.36346247,      -9.88224986,   -0.01745329252,                0,    0.05235987756,99827.17895507812
40.36,      -0.28487599,       0.37328578,      -9.88224986,                0,                0,    0.05235987756,99826.65252685547
40.45,      -0.27505268,       0.37328578,      -9.89207317,   -0.01745329252,                0,    0.05235987756,99826.11846923828
40.54,      -0.28487599,       0.37328578,      -9.89207317,   -0.01745329252,                0,    0.03490658504,99825.60729980469
40.6,       -0.26522937,        0.37328578,-9.911719789999999,                 0,                 0,     0.01745329252, 99825.06561279297
40.67,       -0.27505268,        0.35363916,-9.911719789999999,                 0,    -0.01745329252,     0.05235987756, 99824.55444335938
40.75,       -0.28487599,        0.36346247,-9.911719789999999,    -0.01745329252,                 0,     0.05235987756, 99824.01275634766
40.83,       -0.28487599,        0.37328578,-9.931366410000001,                 0,    -0.03490658504,     0.06981317008, 99823.47106933594
40.92,        -0.2946993,        0.37328578,-9.931366410000001,                 0,    -0.01745329252,     0.01745329252, 99822.93701171875
40.95,       -0.27505268,        0.37328578,-9.931366410000001,                 0,    -0.05235987756,     0.03490658504, 99822.40295410156
41.03,       -0.28487599,        0.37328578,-9.931366410000001,    -0.01745329252,    -0.03490658504,     0.05235987756, 99821.86889648438
41.12,        -0.2946993,        0.37328578,-9.941189720000001,    -0.01745329252,    -0.01745329252,     0.03490658504, 99821.32720947266
41.21,       -0.27505268,        0.37328578,-9.941189720000001,    -0.03490658504,    -0.03490658504,     0.05235987756, 99820.80841064453
41.27,      -0.28487599,       0.35363916,      -9.95101303,                0,   -0.01745329252,    0.06981317008,99820.26672363281
41.36,      -0.27505268,       0.37328578,      -9.96083634,   -0.01745329252,   -0.03490658504,    0.05235987756,99819.73266601562
41.45,      -0.27505268,        0.3929324,      -9.98048296,                0,   -0.01745329252,    0.05235987756,99819.19097900391
41.55,      -0.28487599,       0.37328578,      -9.96083634,   -0.01745329252,   -0.01745329252,    0.05235987756,99818.64166259766
41.64,      -0.28487599,        0.3929324,      -9.98048296,   -0.03490658504,   -0.01745329252,    0.05235987756,99818.10760498047
41.74,      -0.27505268,       0.36346247,      -9.98048296,   -0.01745329252,   -0.03490658504,    0.05235987756,99817.57354736328
41.82,     -0.28487599,      0.37328578,    -10.00012958,               0,  -0.01745329252,   0.05235987756,99817.0166015625
41.9,       -0.2946993,       0.36346247,      -9.98048296,                0,   -0.01745329252,    0.05235987756,99816.46728515625
41.99,      -0.28487599,       0.36346247,     -10.00995289,   -0.01745329252,   -0.01745329252,    0.05235987756,99815.92559814453
42.04,       -0.2946993,       0.38310909,     -10.00995289,   -0.03490658504,   -0.03490658504,    0.03490658504,99815.37628173828
42.13,      -0.2946993,      0.40275571,     -9.99030627,  -0.01745329252,  -0.01745329252,   0.06981317008,99814.8193359375
42.18,      -0.28487599,       0.36346247,     -10.00012958,                0,                0,    0.06981317008,99814.25476074219
42.28,      -0.27505268,       0.37328578,     -10.00995289,                0,                0,    0.03490658504,99813.70544433594
42.34,      -0.27505268,       0.36346247,     -10.00012958,                0,   -0.01745329252,    0.05235987756,99813.14849853516
42.38,      -0.28487599,       0.35363916,     -10.00995289,                0,                0,    0.05235987756,99812.57629394531
42.47,      -0.27505268,       0.35363916,     -10.00012958,   -0.01745329252,                0,    0.05235987756,99812.01934814453
42.53,      -0.27505268,       0.36346247,     -10.00995289,                0,   -0.01745329252,    0.03490658504,99811.43951416016
42.61,      -0.28487599,       0.36346247,      -9.99030627,                0,                0,    0.05235987756,99810.87493896484
42.7,      -0.26522937,       0.36346247,     -10.00995289,                0,   -0.01745329252,    0.03490658504,99810.28747558594
42.76,      -0.26522937,       0.37328578,     -10.00012958,                0,                0,    0.03490658504,99809.72290039062
42.85,      -0.28487599,       0.38310909,      -9.98048296,                0,                0,    0.05235987756,99809.15069580078
42.93,      -0.30452261,       0.38310909,      -9.99030627,                0,   -0.01745329252,    0.05235987756,99808.57086181641
43.03,     -0.28487599,      0.37328578,     -9.97065965,               0,  -0.01745329252,   0.05235987756,99807.9833984375
43.11,      -0.27505268,       0.37328578,      -9.98048296,                0,                0,    0.03490658504,99807.41119384766
43.18,       -0.2946993,       0.37328578,      -9.98048296,                0,                0,    0.03490658504,99806.83898925781
43.27,      -0.28487599,       0.37328578,      -9.97065965,                0,                0,    0.05235987756,99806.23626708984
43.36,      -0.27505268,       0.37328578,      -9.97065965,   -0.01745329252,                0,    0.03490658504,99805.65643310547
43.42,      -0.27505268,       0.37328578,      -9.95101303,                0,                0,    0.05235987756,99805.06896972656
43.51,      -0.26522937,       0.38310909,      -9.96083634,                0,                0,    0.05235987756,99804.47387695312
43.6,      -0.27505268,       0.36346247,      -9.95101303,                0,    0.01745329252,    0.06981317008,99803.89404296875
43.69,       -0.27505268,        0.37328578,-9.931366410000001,                 0,     0.01745329252,     0.03490658504, 99803.28369140625
43.75,       -0.28487599,        0.37328578,-9.941189720000001,                 0,                 0,     0.05235987756, 99802.68096923828
43.84,      -0.27505268,       0.37328578,      -9.95101303,                0,    0.03490658504,    0.03490658504,99802.07824707031
43.93,      -0.27505268,       0.37328578,      -9.90189648,   -0.01745329252,    0.01745329252,    0.05235987756,99801.48315429688
44.02,       -0.28487599,        0.36346247,-9.921543099999999,     0.01745329252,     0.01745329252,     0.05235987756, 99800.87280273438
44.12,      -0.28487599,       0.37328578,      -9.90189648,                0,    0.03490658504,    0.06981317008,99800.27770996094
44.22,      -0.28487599,       0.37328578,      -9.90189648,                0,    0.05235987756,    0.03490658504,99799.67498779297
44.31,    -0.27505268,     0.38310909,    -9.88224986,  0.01745329252,  0.03490658504,  0.05235987756,99799.072265625
44.39,     -0.27505268,      0.37328578,     -9.86260324,   0.01745329252,   0.05235987756,   0.05235987756,99798.4619140625
44.49,      -0.28487599,       0.37328578,      -9.88224986,                0,    0.03490658504,    0.05235987756,99797.85919189453
44.57,      -0.27505268,       0.36346247,      -9.88224986,                0,    0.05235987756,    0.06981317008,99797.24884033203
44.63,    -0.28487599,     0.36346247,    -9.87242655,  0.01745329252,  0.05235987756,  0.05235987756,99796.630859375
44.73,       -0.27505268,        0.36346247,-9.852779930000001,     0.01745329252,     0.05235987756,     0.05235987756, 99796.02813720703
44.82,       -0.27505268,         0.3929324,-9.842956620000001,     0.01745329252,     0.05235987756,     0.05235987756, 99795.42541503906
44.9,       -0.28487599,        0.36346247,-9.842956620000001,     0.01745329252,     0.03490658504,     0.01745329252, 99794.82269287109
45.01,        -0.2946993,        0.35363916,-9.842956620000001,     0.01745329252,     0.03490658504,     0.06981317008, 99794.20471191406
45.07,       -0.26522937,        0.36346247,-9.833133310000001,                 0,     0.03490658504,     0.01745329252, 99793.60198974609
45.17,       -0.28487599,        0.37328578,-9.823309999999999,     0.01745329252,     0.03490658504,     0.03490658504, 99792.99163818359
45.27,       -0.26522937,        0.38310909,-9.823309999999999,                 0,     0.03490658504,     0.03490658504, 99792.37365722656
45.33,       -0.28487599,        0.36346247,-9.823309999999999,                 0,     0.03490658504,     0.03490658504, 99791.77093505859
45.42,       -0.24558275,        0.35363916,-9.823309999999999,                 0,     0.03490658504,     0.05235987756, 99791.16058349609
45.53,        -0.2946993,        0.37328578,-9.823309999999999,                 0,     0.01745329252,     0.03490658504, 99790.56549072266
45.63,      -0.30452261,        0.3929324,      -9.81348669,                0,    0.03490658504,    0.03490658504,99789.96276855469
45.7,      -0.28487599,       0.35363916,      -9.81348669,                0,    0.01745329252,    0.05235987756,99789.36004638672
45.77,      -0.26522937,       0.37328578,      -9.80366338,                0,    0.03490658504,    0.03490658504,99788.74206542969
45.84,      -0.28487599,       0.36346247,      -9.81348669,                0,                0,    0.05235987756,99788.13171386719
45.9,      -0.27505268,        0.3929324,      -9.81348669,                0,    0.01745329252,    0.06981317008,99787.52899169922
45.96,        -0.2946993,        0.38310909,-9.823309999999999,                 0,                 0,     0.05235987756, 99786.93389892578
46.03,       -0.27505268,        0.37328578,-9.823309999999999,    -0.03490658504,                 0,     0.05235987756, 99786.32354736328
46.12,      -0.28487599,       0.35363916,      -9.81348669,                0,                0,    0.03490658504,99785.70556640625
46.22,       -0.27505268,        0.35363916,-9.823309999999999,    -0.01745329252,                 0,     0.05235987756, 99785.11047363281
46.29,        -0.2946993,        0.37328578,-9.823309999999999,    -0.01745329252,                 0,     0.03490658504, 99784.50012207031
46.38,      -0.28487599,       0.36346247,      -9.80366338,   -0.01745329252,   -0.01745329252,    0.06981317008,99783.88977050781
46.47,      -0.27505268,       0.38310909,      -9.81348669,   -0.03490658504,                0,    0.05235987756,99783.27941894531
46.56,      -0.28487599,       0.37328578,      -9.80366338,   -0.03490658504,                0,    0.06981317008,99782.66906738281
46.63,      -0.27505268,       0.37328578,      -9.81348669,   -0.01745329252,   -0.01745329252,    0.05235987756,99782.08160400391
46.69,       -0.27505268,        0.37328578,-9.842956620000001,    -0.01745329252,    -0.03490658504,     0.05235987756, 99781.47888183594
46.74,       -0.28487599,        0.38310909,-9.823309999999999,                 0,    -0.01745329252,     0.05235987756, 99780.86090087891
46.83,        -0.2946993,        0.36346247,-9.823309999999999,                 0,    -0.01745329252,     0.03490658504,     99780.2734375
46.93,       -0.27505268,        0.36346247,-9.833133310000001,    -0.01745329252,    -0.05235987756,     0.05235987756, 99779.64782714844
47.02,       -0.28487599,        0.37328578,-9.842956620000001,    -0.01745329252,    -0.03490658504,     0.05235987756,   99779.052734375
47.08,       -0.27505268,        0.38310909,-9.823309999999999,                 0,    -0.05235987756,     0.05235987756,  99778.4423828125
47.16,       -0.28487599,        0.37328578,-9.842956620000001,    -0.01745329252,    -0.05235987756,     0.05235987756, 99777.84729003906
47.26,       -0.26522937,        0.37328578,-9.833133310000001,    -0.03490658504,    -0.06981317008,     0.03490658504, 99777.23693847656
47.33,       -0.28487599,        0.36346247,-9.842956620000001,    -0.03490658504,    -0.05235987756,     0.05235987756, 99776.63421630859
47.4,       -0.27505268,        0.38310909,-9.833133310000001,    -0.03490658504,    -0.05235987756,     0.05235987756, 99776.02386474609
47.5,       -0.28487599,        0.37328578,-9.842956620000001,    -0.01745329252,    -0.05235987756,     0.05235987756, 99775.43640136719
47.59,       -0.27505268,        0.36346247,-9.833133310000001,                 0,    -0.03490658504,     0.05235987756, 99774.81842041016
47.65,        -0.2946993,        0.38310909,-9.842956620000001,                 0,    -0.03490658504,     0.05235987756, 99774.20806884766
47.73,       -0.26522937,        0.38310909,-9.842956620000001,                 0,    -0.03490658504,     0.06981317008, 99773.60534667969
47.83,       -0.28487599,         0.3929324,-9.852779930000001,    -0.01745329252,    -0.03490658504,     0.03490658504, 99773.00262451172
47.9,        -0.2946993,        0.37328578,-9.852779930000001,                 0,    -0.01745329252,     0.05235987756, 99772.39990234375
47.96,       -0.27505268,        0.37328578,-9.833133310000001,                 0,    -0.01745329252,     0.05235987756, 99771.79718017578
48.05,       -0.28487599,        0.36346247,-9.852779930000001,     0.01745329252,    -0.01745329252,     0.06981317008, 99771.18682861328
48.15,       -0.27505268,        0.36346247,-9.823309999999999,                 0,                 0,     0.05235987756, 99770.58410644531
48.22,        -0.2946993,        0.37328578,-9.833133310000001,     0.01745329252,                 0,     0.03490658504, 99769.98138427734
48.29,       -0.28487599,        0.37328578,-9.833133310000001,     0.01745329252,                 0,     0.05235987756, 99769.38629150391
48.39,       -0.28487599,        0.38310909,-9.842956620000001,     0.01745329252,                 0,     0.05235987756, 99768.78356933594
48.44,       -0.30452261,        0.35363916,-9.842956620000001,     0.01745329252,                 0,     0.05235987756,  99768.1884765625
48.53,       -0.27505268,         0.3929324,-9.852779930000001,     0.01745329252,                 0,     0.05235987756,      99767.578125
48.61,       -0.27505268,        0.35363916,-9.852779930000001,     0.01745329252,                 0,     0.06981317008, 99766.97540283203
48.7,       -0.28487599,        0.37328578,-9.852779930000001,     0.03490658504,                 0,     0.05235987756, 99766.36505126953
48.76,       -0.26522937,        0.36346247,-9.852779930000001,                 0,                 0,     0.06981317008, 99765.75469970703
48.83,       -0.27505268,        0.37328578,-9.852779930000001,     0.01745329252,                 0,     0.06981317008, 99765.15960693359
48.91,       -0.27505268,        0.36346247,-9.842956620000001,                 0,                 0,     0.03490658504, 99764.55688476562
48.99,       -0.28487599,        0.37328578,-9.842956620000001,                 0,                 0,     0.05235987756, 99763.95416259766
49.08,       -0.27505268,        0.34381585,-9.852779930000001,                 0,                 0,     0.05235987756, 99763.34381103516
49.16,      -0.28487599,       0.37328578,      -9.86260324,                0,                0,    0.06981317008,99762.74108886719
49.24,        -0.2946993,        0.37328578,-9.852779930000001,    -0.01745329252,                 0,     0.03490658504, 99762.13073730469
49.32,       -0.2946993,       0.37328578,      -9.87242655,                0,                0,    0.05235987756,99761.51275634766
49.42,      -0.27505268,       0.37328578,      -9.89207317,                0,                0,    0.03490658504,99760.91766357422
49.47,       -0.2946993,       0.37328578,      -9.86260324,                0,                0,    0.05235987756,99760.31494140625
49.57,      -0.27505268,       0.37328578,      -9.87242655,   -0.01745329252,                0,    0.05235987756,99759.70458984375
49.63,      -0.28487599,       0.36346247,      -9.87242655,                0,                0,    0.05235987756,99759.07897949219
49.71,      -0.26522937,       0.36346247,      -9.88224986,   -0.01745329252,                0,    0.05235987756,99758.48388671875
49.8,      -0.28487599,       0.37328578,      -9.89207317,   -0.01745329252,                0,    0.05235987756,99757.87353515625
49.9,       -0.27505268,        0.37328578,-9.911719789999999,    -0.01745329252,                 0,     0.03490658504, 99757.26318359375
49.94,      -0.27505268,       0.35363916,      -9.89207317,                0,                0,    0.03490658504,99756.65283203125
50.03,      -0.28487599,       0.38310909,      -9.90189648,   -0.03490658504,                0,    0.03490658504,99756.05010986328
50.11,      -0.27505268,       0.38310909,      -9.87242655,   -0.01745329252,                0,    0.05235987756,99755.43212890625
50.2,      -0.28487599,       0.36346247,      -9.90189648,   -0.01745329252,                0,    0.05235987756,99754.82940673828
50.28,        -0.2946993,        0.38310909,-9.911719789999999,    -0.03490658504,                 0,     0.05235987756, 99754.21905517578
50.36,       -0.28487599,        0.37328578,-9.911719789999999,    -0.03490658504,                 0,     0.05235987756, 99753.60870361328
50.45,       -0.28487599,        0.35363916,-9.911719789999999,    -0.01745329252,                 0,     0.05235987756, 99752.98309326172
50.53,       -0.30452261,        0.37328578,-9.921543099999999,    -0.01745329252,                 0,     0.03490658504, 99752.36511230469
50.63,       -0.28487599,        0.38310909,-9.941189720000001,    -0.01745329252,                 0,     0.05235987756, 99751.74713134766
50.69,        -0.2946993,        0.35363916,-9.941189720000001,    -0.01745329252,                 0,     0.03490658504, 99751.12915039062
50.76,       -0.27505268,        0.38310909,-9.941189720000001,    -0.01745329252,    -0.01745329252,     0.03490658504, 99750.51879882812
50.84,       -0.28487599,        0.35363916,-9.941189720000001,    -0.03490658504,                 0,     0.05235987756, 99749.90081787109
50.93,    -0.26522937,     0.37328578,    -9.95101303, -0.03490658504, -0.01745329252,  0.05235987756,99749.267578125
51.01,      -0.27505268,       0.37328578,      -9.96083634,   -0.03490658504,   -0.01745329252,    0.05235987756,99748.63433837891
51.1,      -0.27505268,       0.37328578,      -9.99030627,   -0.01745329252,   -0.03490658504,    0.06981317008,99748.01635742188
51.18,      -0.28487599,       0.37328578,      -9.97065965,   -0.01745329252,   -0.01745329252,    0.05235987756,99747.39074707031
51.25,      -0.26522937,       0.36346247,      -9.99030627,                0,   -0.01745329252,    0.06981317008,99746.76513671875
51.33,       -0.2946993,       0.38310909,     -10.00012958,                0,   -0.01745329252,    0.05235987756,99746.13189697266
51.42,       -0.2946993,       0.37328578,      -9.99030627,                0,   -0.01745329252,    0.05235987756,99745.49102783203
51.5,    -0.27505268,     0.37328578,    -9.99030627,              0, -0.01745329252,  0.05235987756,99744.873046875
51.59,      -0.26522937,       0.38310909,      -9.99030627,                0,                0,    0.05235987756,99744.22454833984
51.68,       -0.2946993,       0.38310909,     -10.00995289,                0,                0,    0.06981317008,99743.59130859375
51.76,      -0.26522937,       0.37328578,     -10.00995289,    0.01745329252,                0,    0.05235987756,99742.94281005859
51.87,      -0.28487599,       0.38310909,     -10.02959951,                0,                0,    0.06981317008,99742.29431152344
51.94,      -0.28487599,       0.36346247,     -10.02959951,                0,                0,    0.05235987756,99741.65344238281
52.02,      -0.27505268,       0.37328578,      -10.0197762,                0,                0,    0.06981317008,99741.00494384766
52.09,     -0.30452261,      0.38310909,    -10.00012958,               0,  -0.01745329252,   0.03490658504,99740.3564453125
52.17,      -0.28487599,       0.37328578,      -10.0197762,                0,                0,    0.06981317008,99739.70794677734
52.26,      -0.26522937,       0.37328578,      -10.0197762,                0,                0,    0.05235987756,99739.04418945312
52.31,       -0.2946993,       0.37328578,     -10.00995289,                0,                0,    0.03490658504,99738.37280273438
52.42,      -0.28487599,       0.37328578,     -10.04924613,                0,   -0.03490658504,    0.05235987756,99737.73193359375
52.47,    -0.27505268,     0.36346247,    -10.0197762,              0,              0,  0.05235987756,99737.060546875
52.56,       -0.2946993,       0.36346247,     -10.02959951,    0.01745329252,   -0.01745329252,    0.06981317008,99736.39678955078
52.66,      -0.26522937,       0.38310909,     -10.02959951,    0.01745329252,   -0.01745329252,    0.05235987756,99735.73303222656
52.7,      -0.27505268,       0.37328578,     -10.03942282,    0.01745329252,                0,    0.01745329252,99735.05401611328
52.77,      -0.26522937,       0.35363916,      -10.0197762,                0,   -0.01745329252,    0.03490658504,99734.39025878906
52.86,      -0.28487599,       0.36346247,     -10.00012958,                0,                0,    0.05235987756,99733.70361328125
52.91,      -0.26522937,       0.38310909,     -10.00995289,                0,   -0.01745329252,    0.05235987756,99733.02459716797
53,      -0.28487599,       0.37328578,      -9.99030627,                0,                0,    0.05235987756,99732.33795166016
53.08,      -0.27505268,       0.37328578,     -10.00012958,                0,                0,    0.05235987756,99731.65893554688
53.15,      -0.26522937,       0.36346247,      -9.98048296,                0,                0,    0.05235987756,99730.97229003906
53.24,      -0.28487599,       0.37328578,      -9.99030627,                0,                0,    0.05235987756,99730.28564453125
53.31,      -0.28487599,       0.36346247,      -9.96083634,                0,                0,    0.03490658504,99729.58374023438
53.39,      -0.26522937,       0.37328578,     -10.00012958,                0,                0,    0.05235987756,99728.90472412109
53.47,      -0.27505268,       0.38310909,      -9.97065965,                0,                0,    0.06981317008,99728.20281982422
53.56,      -0.26522937,       0.38310909,      -9.96083634,                0,                0,    0.05235987756,99727.50854492188
53.61,       -0.28487599,        0.36346247,-9.941189720000001,                 0,                 0,     0.06981317008, 99726.82952880859
53.69,      -0.27505268,       0.35363916,      -9.95101303,                0,                0,    0.03490658504,99726.11999511719
53.79,       -0.28487599,        0.40275571,-9.931366410000001,                 0,     0.01745329252,     0.05235987756, 99725.41046142578
53.88,      -0.26522937,       0.40275571,      -9.89207317,                0,    0.01745329252,    0.03490658504,99724.70855712891
53.97,       -0.26522937,        0.36346247,-9.921543099999999,                 0,                 0,     0.05235987756, 99724.00665283203
54.06,      -0.28487599,       0.36346247,      -9.89207317,   -0.01745329252,    0.01745329252,    0.06981317008,99723.31237792969
54.12,      -0.28487599,       0.36346247,      -9.88224986,                0,    0.03490658504,    0.05235987756,99722.60284423828
54.21,      -0.28487599,       0.38310909,      -9.88224986,   -0.01745329252,    0.03490658504,    0.05235987756,99721.90856933594
54.26,      -0.27505268,       0.37328578,      -9.88224986,   -0.01745329252,    0.01745329252,    0.05235987756,99721.18377685547
54.34,      -0.27505268,       0.36346247,      -9.86260324,   -0.01745329252,    0.03490658504,    0.05235987756,99720.47424316406
54.42,        -0.2946993,        0.38310909,-9.852779930000001,    -0.03490658504,     0.05235987756,     0.05235987756, 99719.77233886719
54.5,      -0.28487599,       0.36346247,      -9.86260324,   -0.01745329252,    0.05235987756,    0.05235987756,99719.07043457031
54.59,      -0.30452261,       0.36346247,      -9.86260324,   -0.03490658504,    0.03490658504,    0.06981317008,99718.35327148438
54.66,       -0.26522937,        0.35363916,-9.842956620000001,    -0.03490658504,     0.03490658504,     0.06981317008,  99717.6513671875
54.75,       -0.2946993,       0.37328578,      -9.86260324,   -0.03490658504,    0.05235987756,    0.06981317008,99716.93420410156
54.82,       -0.28487599,        0.38310909,-9.842956620000001,    -0.05235987756,     0.03490658504,     0.05235987756, 99716.23229980469
54.88,       -0.27505268,        0.38310909,-9.833133310000001,    -0.03490658504,     0.06981317008,     0.06981317008, 99715.52276611328
54.95,       -0.27505268,        0.36346247,-9.823309999999999,    -0.01745329252,     0.05235987756,     0.05235987756, 99714.81323242188
55.05,    -0.28487599,      0.3929324,    -9.80366338, -0.03490658504,  0.03490658504,  0.05235987756,99714.111328125
55.13,        -0.2946993,        0.37328578,-9.833133310000001,    -0.05235987756,     0.03490658504,     0.05235987756, 99713.40179443359
55.23,      -0.28487599,       0.37328578,      -9.80366338,   -0.03490658504,    0.03490658504,    0.05235987756,99712.69226074219
55.31,      -0.28487599,        0.3929324,      -9.79384007,   -0.01745329252,    0.01745329252,    0.03490658504,99711.99035644531
55.4,      -0.27505268,       0.38310909,      -9.79384007,   -0.03490658504,    0.03490658504,    0.06981317008,99711.29608154297
55.47,       -0.27505268,        0.37328578,-9.823309999999999,    -0.03490658504,     0.01745329252,     0.05235987756, 99710.57891845703
55.54,      -0.27505268,       0.37328578,      -9.79384007,   -0.03490658504,    0.01745329252,    0.05235987756,99709.87701416016
55.61,      -0.25540606,       0.36346247,      -9.77419345,   -0.01745329252,                0,    0.06981317008,99709.15985107422
55.67,      -0.28487599,       0.37328578,      -9.80366338,   -0.01745329252,    0.01745329252,    0.05235987756,99708.46557617188
55.75,      -0.27505268,       0.35363916,      -9.77419345,   -0.01745329252,                0,    0.05235987756,99707.75604248047
55.85,      -0.27505268,       0.36346247,      -9.78401676,   -0.01745329252,                0,    0.05235987756,99707.04650878906
55.9,      -0.30452261,       0.36346247,      -9.78401676,   -0.01745329252,                0,     0.0872664626,99706.34460449219
55.98,      -0.26522937,       0.36346247,      -9.79384007,                0,   -0.01745329252,    0.05235987756,99705.63507080078
56.08,      -0.27505268,       0.37328578,      -9.78401676,                0,                0,    0.06981317008,99704.94079589844
56.14,      -0.26522937,       0.36346247,      -9.79384007,                0,   -0.01745329252,    0.03490658504,99704.23126220703
56.22,      -0.27505268,       0.37328578,      -9.78401676,   -0.01745329252,   -0.01745329252,    0.03490658504,99703.52172851562
56.29,      -0.27505268,       0.38310909,      -9.77419345,                0,   -0.05235987756,    0.05235987756,99702.82745361328
56.39,      -0.27505268,       0.38310909,      -9.78401676,                0,   -0.05235987756,    0.06981317008,99702.14080810547
56.45,      -0.27505268,       0.34381585,      -9.77419345,                0,   -0.03490658504,    0.03490658504,99701.42364501953
56.52,      -0.28487599,        0.3929324,      -9.77419345,                0,   -0.05235987756,    0.03490658504,99700.72937011719
56.6,      -0.27505268,       0.37328578,      -9.77419345,                0,   -0.05235987756,    0.05235987756,99700.02746582031
56.67,      -0.30452261,       0.37328578,      -9.80366338,                0,   -0.03490658504,    0.06981317008,99699.30267333984
56.72,      -0.27505268,       0.38310909,      -9.78401676,                0,   -0.05235987756,    0.06981317008,99698.61602783203
56.82,      -0.27505268,       0.37328578,      -9.80366338,    0.01745329252,   -0.03490658504,    0.06981317008,99697.91412353516
56.89,       -0.2946993,       0.37328578,      -9.78401676,    0.01745329252,   -0.03490658504,    0.06981317008,99697.23510742188
56.98,      -0.28487599,       0.37328578,      -9.80366338,                0,   -0.03490658504,     0.0872664626,99696.52557373047
57.08,      -0.26522937,       0.38310909,      -9.79384007,                0,   -0.05235987756,    0.05235987756,99695.83129882812
57.18,      -0.28487599,       0.37328578,      -9.81348669,                0,   -0.03490658504,    0.06981317008,99695.12939453125
57.24,      -0.28487599,       0.37328578,      -9.80366338,                0,   -0.01745329252,    0.05235987756,99694.44274902344
57.34,       -0.2946993,       0.37328578,      -9.81348669,                0,   -0.01745329252,    0.05235987756,99693.74084472656
57.44,       -0.2946993,       0.36346247,      -9.81348669,                0,   -0.05235987756,    0.06981317008,99693.04656982422
57.51,       -0.28487599,        0.37328578,-9.823309999999999,                 0,    -0.03490658504,     0.05235987756, 99692.35229492188
57.6,       -0.26522937,         0.3929324,-9.833133310000001,                 0,    -0.03490658504,     0.05235987756, 99691.66564941406
57.64,       -0.27505268,        0.36346247,-9.823309999999999,     0.01745329252,    -0.01745329252,     0.06981317008, 99690.97137451172
57.74,       -0.28487599,        0.36346247,-9.833133310000001,                 0,                 0,     0.06981317008, 99690.28472900391
57.84,       -0.27505268,        0.37328578,-9.852779930000001,                 0,                 0,     0.06981317008, 99689.59045410156
57.91,       -0.28487599,        0.38310909,-9.842956620000001,                 0,                 0,     0.05235987756, 99688.89617919922
57.97,       -0.27505268,        0.38310909,-9.823309999999999,                 0,                 0,     0.05235987756, 99688.20190429688
58.07,       -0.27505268,        0.37328578,-9.842956620000001,                 0,                 0,     0.06981317008, 99687.51525878906
58.17,      -0.28487599,       0.36346247,      -9.86260324,                0,                0,    0.06981317008,99686.81335449219
58.26,      -0.28487599,       0.38310909,      -9.86260324,                0,                0,    0.05235987756,99686.14196777344
58.36,       -0.26522937,        0.37328578,-9.852779930000001,                 0,                 0,     0.05235987756, 99685.44769287109
58.46,      -0.28487599,       0.37328578,      -9.87242655,                0,                0,    0.03490658504,99684.75341796875
58.53,        -0.2946993,        0.36346247,-9.852779930000001,                 0,                 0,     0.06981317008, 99684.05151367188
58.64,    -0.27505268,     0.38310909,    -9.86260324,              0,              0,  0.06981317008,99683.349609375
58.7,      -0.28487599,       0.37328578,      -9.87242655,                0,                0,    0.05235987756,99682.65533447266
58.77,      -0.28487599,       0.38310909,      -9.88224986,                0,                0,    0.06981317008,99681.96868896484
58.88,      -0.30452261,       0.37328578,      -9.89207317,                0,                0,    0.06981317008,99681.28204345703
58.96,      -0.27505268,       0.35363916,      -9.88224986,                0,                0,    0.03490658504,99680.59539794922
59.06,      -0.26522937,       0.36346247,      -9.90189648,                0,    0.01745329252,    0.10471975512,99679.89349365234
59.17,      -0.27505268,       0.38310909,      -9.90189648,                0,                0,     0.0872664626,99679.19158935547
59.24,      -0.28487599,       0.37328578,      -9.89207317,                0,                0,    0.05235987756,99678.50494384766
59.32,      -0.27505268,        0.3929324,      -9.90189648,                0,                0,    0.03490658504,99677.80303955078
59.42,      -0.27505268,       0.36346247,      -9.89207317,                0,                0,    0.05235987756,99677.10876464844
59.49,      -0.28487599,       0.38310909,      -9.89207317,                0,                0,    0.05235987756,99676.41448974609
59.54,      -0.26522937,       0.37328578,      -9.89207317,   -0.01745329252,                0,    0.05235987756,99675.70495605469
59.64,       -0.25540606,        0.37328578,-9.911719789999999,    -0.01745329252,                 0,     0.06981317008, 99675.01831054688
59.7,      -0.26522937,       0.36346247,      -9.89207317,                0,                0,    0.06981317008,99674.32403564453
59.76,       -0.26522937,        0.38310909,-9.931366410000001,    -0.03490658504,                 0,     0.06981317008, 99673.59924316406
59.85,       -0.27505268,        0.37328578,-9.921543099999999,    -0.01745329252,                 0,     0.05235987756, 99672.89733886719
59.94,        -0.2946993,        0.37328578,-9.931366410000001,    -0.01745329252,                 0,     0.05235987756, 99672.19543457031
60.03,       -0.30452261,        0.38310909,-9.931366410000001,    -0.01745329252,                 0,     0.06981317008, 99671.47064208984
60.12,       -0.28487599,        0.36346247,-9.931366410000001,    -0.01745329252,                 0,     0.05235987756,  99670.7763671875
60.2,       -0.2946993,       0.36346247,      -9.95101303,                0,   -0.01745329252,    0.05235987756,99670.07446289062
60.29,      -0.27505268,       0.38310909,      -9.96083634,   -0.03490658504,   -0.03490658504,    0.06981317008,99669.34967041016
60.34,      -0.27505268,       0.37328578,      -9.95101303,   -0.01745329252,   -0.01745329252,    0.05235987756,99668.64776611328
60.43,      -0.28487599,       0.36346247,      -9.95101303,   -0.01745329252,   -0.03490658504,    0.05235987756,99667.93823242188
60.52,      -0.27505268,       0.36346247,      -9.97065965,                0,   -0.01745329252,     0.0872664626,99667.22869873047
60.6,      -0.28487599,       0.37328578,      -9.97065965,                0,   -0.05235987756,    0.05235987756,99666.49627685547
60.69,    -0.27505268,     0.38310909,    -9.96083634,              0, -0.05235987756,  0.05235987756,99665.771484375
60.78,      -0.27505268,       0.37328578,      -9.96083634,                0,   -0.03490658504,    0.05235987756,99665.04669189453
60.85,       -0.2946993,       0.37328578,      -9.97065965,                0,   -0.01745329252,    0.05235987756,99664.33715820312
60.93,      -0.28487599,       0.35363916,      -9.99030627,                0,   -0.03490658504,    0.06981317008,99663.61236572266
61.01,      -0.26522937,       0.37328578,      -9.98048296,                0,                0,    0.06981317008,99662.87994384766
61.09,      -0.27505268,       0.36346247,      -9.99030627,   -0.01745329252,   -0.01745329252,    0.05235987756,99662.16278076172
61.19,      -0.26522937,       0.36346247,     -10.00995289,                0,   -0.01745329252,    0.06981317008,99661.40747070312
61.23,      -0.26522937,       0.38310909,     -10.00995289,   -0.01745329252,   -0.01745329252,    0.05235987756,99660.69030761719
61.31,       -0.2946993,        0.3929324,     -10.00995289,                0,   -0.01745329252,    0.05235987756,99659.94262695312
61.39,      -0.27505268,       0.37328578,     -10.02959951,   -0.01745329252,   -0.01745329252,    0.05235987756,99659.21020507812
61.48,      -0.26522937,       0.37328578,     -10.00995289,   -0.01745329252,   -0.05235987756,    0.06981317008,99658.48541259766
61.53,      -0.26522937,       0.37328578,     -10.02959951,   -0.01745329252,   -0.03490658504,    0.05235987756,99657.72247314453
61.62,      -0.28487599,       0.36346247,      -10.0197762,                0,   -0.01745329252,    0.06981317008,99656.99005126953
61.71,      -0.28487599,       0.37328578,     -10.00995289,                0,                0,    0.05235987756,99656.24237060547
61.8,      -0.28487599,       0.37328578,     -10.00995289,                0,                0,    0.05235987756,99655.50231933594
61.89,      -0.27505268,       0.35363916,      -10.0197762,                0,                0,    0.06981317008,99654.73937988281
61.98,      -0.27505268,       0.38310909,      -10.0197762,                0,                0,    0.05235987756,99653.99169921875
62.03,      -0.28487599,       0.38310909,      -10.0197762,   -0.01745329252,   -0.01745329252,    0.06981317008,99653.22113037109
62.13,     -0.26522937,      0.38310909,     -10.0197762,               0,               0,   0.06981317008,99652.4658203125
62.19,      -0.28487599,       0.38310909,      -10.0197762,                0,                0,    0.05235987756,99651.70288085938
62.24,      -0.26522937,       0.35363916,     -10.03942282,                0,                0,    0.05235987756,99650.94757080078
62.33,      -0.27505268,       0.36346247,      -10.0197762,    0.01745329252,                0,    0.05235987756,99650.16937255859
62.42,      -0.28487599,       0.35363916,     -10.00995289,                0,                0,    0.05235987756,99649.39117431641
62.5,       -0.2946993,       0.38310909,     -10.00995289,    0.01745329252,                0,    0.05235987756,99648.62060546875
62.61,      -0.28487599,       0.37328578,     -10.00012958,    0.03490658504,                0,    0.05235987756,99647.85003662109
62.68,      -0.28487599,       0.37328578,     -10.02959951,    0.01745329252,                0,    0.05235987756,99647.07946777344
62.71,      -0.27505268,       0.38310909,     -10.00012958,    0.01745329252,    0.03490658504,    0.05235987756,99646.30126953125
62.77,      -0.27505268,       0.36346247,      -9.99030627,    0.01745329252,                0,    0.06981317008,99645.51544189453
62.86,      -0.27505268,       0.37328578,     -10.00012958,                0,                0,    0.05235987756,99644.73724365234
62.97,      -0.27505268,       0.36346247,      -9.98048296,                0,    0.03490658504,    0.05235987756,99643.95141601562
63,      -0.28487599,       0.38310909,      -9.97065965,                0,    0.03490658504,     0.0872664626,99643.16558837891
63.09,      -0.27505268,       0.36346247,      -9.98048296,                0,    0.03490658504,    0.06981317008,99642.37213134766
63.16,      -0.28487599,       0.40275571,      -9.95101303,                0,    0.03490658504,    0.06981317008,99641.58630371094
63.23,      -0.27505268,       0.35363916,      -9.96083634,                0,    0.03490658504,    0.06981317008,99640.80047607422
63.31,       -0.28487599,        0.37328578,-9.941189720000001,    -0.01745329252,     0.05235987756,     0.05235987756, 99640.00701904297
63.39,       -0.27505268,        0.34381585,-9.941189720000001,                 0,                 0,     0.06981317008, 99639.21356201172
63.47,       -0.27505268,        0.38310909,-9.921543099999999,    -0.01745329252,     0.03490658504,     0.06981317008, 99638.42010498047
63.56,       -0.28487599,        0.35363916,-9.911719789999999,    -0.03490658504,     0.01745329252,     0.05235987756, 99637.62664794922
63.64,       -0.28487599,        0.37328578,-9.911719789999999,                 0,     0.01745329252,     0.06981317008, 99636.81030273438
63.73,      -0.26522937,       0.36346247,      -9.89207317,   -0.01745329252,    0.03490658504,    0.05235987756,99636.03210449219
63.8,      -0.27505268,       0.38310909,      -9.88224986,   -0.03490658504,    0.01745329252,    0.06981317008,99635.23101806641
63.86,      -0.27505268,       0.37328578,      -9.88224986,   -0.03490658504,    0.01745329252,    0.06981317008,99634.42993164062
63.95,       -0.30452261,        0.36346247,-9.852779930000001,    -0.01745329252,     0.01745329252,     0.06981317008, 99633.62121582031
64.05,      -0.28487599,       0.38310909,      -9.86260324,   -0.03490658504,    0.01745329252,    0.03490658504,99632.82012939453
64.12,      -0.27505268,       0.35363916,      -9.86260324,   -0.05235987756,    0.01745329252,    0.06981317008,99632.02667236328
64.21,        -0.2946993,        0.37328578,-9.852779930000001,    -0.03490658504,     0.01745329252,     0.05235987756, 99631.21795654297
64.28,       -0.28487599,        0.36346247,-9.833133310000001,    -0.03490658504,                 0,     0.06981317008, 99630.41687011719
64.39,       -0.27505268,         0.3929324,-9.842956620000001,    -0.03490658504,                 0,      0.0872664626, 99629.60052490234
64.47,       -0.27505268,        0.36346247,-9.833133310000001,    -0.06981317008,                 0,     0.05235987756, 99628.80706787109
64.56,       -0.27505268,        0.38310909,-9.833133310000001,    -0.05235987756,                 0,     0.06981317008, 99627.99835205078
64.68,       -0.27505268,         0.3929324,-9.833133310000001,    -0.03490658504,                 0,     0.05235987756, 99627.20489501953
64.74,        -0.2946993,        0.38310909,-9.823309999999999,    -0.06981317008,                 0,     0.03490658504, 99626.38854980469
64.84,      -0.26522937,       0.36346247,      -9.80366338,   -0.03490658504,                0,    0.06981317008,99625.57983398438
64.93,       -0.27505268,        0.40275571,-9.823309999999999,    -0.03490658504,                 0,     0.06981317008, 99624.77111816406
65.01,      -0.27505268,       0.37328578,      -9.78401676,   -0.03490658504,                0,    0.05235987756,99623.97003173828
65.07,      -0.27505268,       0.37328578,      -9.80366338,   -0.01745329252,                0,    0.06981317008,99623.17657470703
65.19,      -0.26522937,       0.37328578,      -9.81348669,   -0.03490658504,                0,    0.06981317008,99622.36022949219
65.28,      -0.27505268,       0.36346247,      -9.81348669,   -0.03490658504,                0,    0.05235987756,99621.54388427734
65.38,      -0.28487599,       0.35363916,      -9.80366338,   -0.03490658504,                0,    0.05235987756,99620.74279785156
65.48,      -0.26522937,       0.37328578,      -9.81348669,   -0.01745329252,                0,    0.06981317008,99619.93408203125
65.55,      -0.27505268,       0.36346247,      -9.79384007,                0,                0,    0.05235987756,99619.11773681641
65.6,      -0.27505268,       0.36346247,      -9.81348669,                0,   -0.01745329252,    0.06981317008,99618.33190917969
65.65,      -0.27505268,       0.35363916,      -9.79384007,                0,   -0.01745329252,    0.06981317008,99617.51556396484
65.74,      -0.30452261,       0.38310909,      -9.79384007,                0,   -0.01745329252,    0.06981317008,99616.72973632812
65.81,      -0.28487599,       0.38310909,      -9.79384007,                0,   -0.01745329252,     0.0872664626,99615.91339111328
65.88,       -0.2946993,       0.38310909,      -9.80366338,                0,   -0.01745329252,    0.06981317008,99615.12756347656
65.98,      -0.28487599,       0.37328578,      -9.79384007,                0,   -0.01745329252,    0.06981317008,99614.32647705078
66.04,      -0.27505268,       0.37328578,      -9.78401676,   -0.01745329252,   -0.01745329252,    0.05235987756,99613.51776123047
66.11,      -0.26522937,       0.38310909,      -9.78401676,                0,   -0.01745329252,    0.05235987756,99612.73193359375
66.2,      -0.26522937,       0.37328578,      -9.79384007,                0,   -0.03490658504,    0.05235987756,99611.93084716797
66.3,       -0.2946993,       0.38310909,      -9.79384007,                0,   -0.01745329252,    0.06981317008,99611.12213134766
66.39,      -0.28487599,       0.37328578,      -9.79384007,    0.01745329252,   -0.01745329252,    0.06981317008,99610.32867431641
66.44,      -0.28487599,       0.35363916,      -9.78401676,    0.01745329252,   -0.01745329252,    0.06981317008,99609.51232910156
66.52,      -0.27505268,       0.38310909,      -9.78401676,    0.01745329252,   -0.01745329252,    0.06981317008,99608.72650146484
66.61,      -0.27505268,       0.35363916,      -9.78401676,    0.03490658504,   -0.03490658504,    0.06981317008,99607.93304443359
66.69,      -0.26522937,       0.36346247,      -9.78401676,    0.01745329252,   -0.01745329252,    0.05235987756,99607.13195800781
66.77,      -0.28487599,       0.36346247,      -9.79384007,    0.01745329252,   -0.01745329252,    0.05235987756,99606.33850097656
66.86,      -0.27505268,       0.35363916,      -9.77419345,    0.01745329252,   -0.01745329252,    0.05235987756,99605.52978515625
66.91,      -0.27505268,       0.38310909,      -9.79384007,    0.01745329252,                0,    0.06981317008,99604.74395751953
67.01,      -0.28487599,       0.37328578,      -9.79384007,    0.03490658504,                0,    0.06981317008,99603.94287109375
67.08,      -0.26522937,       0.37328578,      -9.78401676,    0.03490658504,                0,    0.05235987756,99603.15704345703
67.15,      -0.28487599,        0.3929324,      -9.79384007,    0.01745329252,                0,    0.06981317008,99602.34832763672
67.24,      -0.27505268,       0.37328578,      -9.80366338,                0,                0,    0.05235987756,99601.57012939453
67.32,      -0.28487599,       0.38310909,      -9.78401676,                0,                0,    0.05235987756,99600.79193115234
67.41,       -0.2946993,       0.36346247,      -9.79384007,                0,                0,    0.06981317008,99599.99084472656
67.5,      -0.28487599,       0.36346247,      -9.79384007,                0,                0,    0.06981317008,99599.18975830078
67.58,      -0.26522937,       0.35363916,      -9.78401676,    0.01745329252,   -0.01745329252,    0.05235987756,99598.41156005859
67.66,      -0.26522937,       0.36346247,      -9.80366338,    0.01745329252,   -0.01745329252,    0.06981317008,99597.62573242188
67.72,      -0.28487599,       0.38310909,      -9.79384007,    0.01745329252,                0,    0.05235987756,99596.83227539062
67.82,      -0.27505268,       0.36346247,      -9.77419345,    0.03490658504,   -0.01745329252,    0.06981317008,99596.05407714844
67.89,       -0.2946993,       0.36346247,      -9.80366338,    0.01745329252,                0,    0.06981317008,99595.27587890625
67.98,    -0.28487599,     0.35363916,    -9.80366338,  0.03490658504,              0,  0.06981317008,99594.482421875
68.08,      -0.26522937,       0.38310909,      -9.81348669,    0.01745329252,                0,    0.05235987756,99593.69659423828
68.12,      -0.27505268,       0.38310909,      -9.79384007,                0,                0,    0.05235987756,99592.90313720703
68.19,      -0.27505268,       0.36346247,      -9.78401676,                0,                0,     0.0872664626,99592.11730957031
68.24,       -0.2946993,       0.37328578,      -9.77419345,                0,   -0.01745329252,    0.06981317008,99591.32385253906
68.33,      -0.27505268,       0.37328578,      -9.79384007,                0,                0,    0.05235987756,99590.54565429688
68.43,      -0.27505268,       0.37328578,      -9.78401676,                0,                0,    0.05235987756,99589.74456787109
68.47,      -0.25540606,       0.36346247,      -9.78401676,                0,                0,    0.05235987756,99588.96636962891
68.53,      -0.27505268,       0.37328578,      -9.79384007,   -0.01745329252,                0,    0.06981317008,99588.18054199219
68.6,      -0.26522937,       0.36346247,      -9.76437014,   -0.01745329252,                0,    0.06981317008,99587.38708496094
68.7,      -0.28487599,       0.36346247,      -9.78401676,   -0.01745329252,    0.01745329252,    0.05235987756,99586.61651611328
68.81,      -0.28487599,       0.37328578,      -9.76437014,                0,                0,    0.06981317008,99585.83068847656
68.87,      -0.26522937,       0.37328578,      -9.77419345,   -0.01745329252,                0,    0.05235987756,99585.03723144531
68.96,      -0.27505268,       0.36346247,      -9.78401676,                0,                0,    0.06981317008,99584.25903320312
69.04,      -0.27505268,       0.37328578,      -9.76437014,   -0.01745329252,                0,    0.06981317008,99583.47320556641
69.15,      -0.27505268,       0.38310909,      -9.77419345,   -0.01745329252,                0,    0.06981317008,99582.68737792969
69.25,      -0.27505268,       0.35363916,      -9.78401676,   -0.03490658504,                0,    0.06981317008,99581.92443847656
69.34,       -0.28487599,        0.35363916,-9.754546830000001,    -0.03490658504,                 0,     0.05235987756, 99581.13861083984
69.43,       -0.27505268,        0.38310909,-9.754546830000001,    -0.03490658504,                 0,     0.06981317008, 99580.36804199219
69.54,       -0.28487599,        0.37328578,-9.754546830000001,    -0.01745329252,                 0,     0.05235987756, 99579.58221435547
69.64,      -0.26522937,       0.38310909,      -9.76437014,   -0.03490658504,                0,    0.06981317008,99578.81164550781
69.72,       -0.28487599,         0.3929324,-9.754546830000001,    -0.03490658504,                 0,     0.05235987756, 99578.04870605469
69.81,       -0.26522937,        0.37328578,-9.744723520000001,    -0.03490658504,     0.01745329252,     0.06981317008,  99577.2705078125
69.9,      -0.28487599,       0.37328578,      -9.77419345,   -0.03490658504,                0,    0.05235987756,99576.50756835938
70.01,      -0.27505268,       0.36346247,      -9.77419345,   -0.01745329252,                0,    0.05235987756,99575.74462890625
70.08,       -0.27505268,        0.38310909,-9.754546830000001,    -0.01745329252,                 0,     0.05235987756, 99574.95880126953
70.14,       -0.2946993,        0.3929324,      -9.76437014,   -0.01745329252,   -0.01745329252,    0.06981317008,99574.18823242188
70.21,       -0.27505268,        0.38310909,-9.754546830000001,    -0.03490658504,                 0,     0.05235987756, 99573.41766357422
70.3,      -0.28487599,       0.35363916,      -9.77419345,   -0.01745329252,                0,    0.06981317008,99572.64709472656
70.36,      -0.26522937,       0.37328578,      -9.76437014,   -0.01745329252,                0,    0.06981317008,99571.89178466797
70.46,      -0.26522937,        0.3929324,      -9.79384007,   -0.01745329252,                0,    0.05235987756,99571.13647460938
70.51,       -0.28487599,        0.36346247,-9.744723520000001,    -0.01745329252,                 0,     0.05235987756, 99570.36590576172
70.62,       -0.2946993,       0.37328578,      -9.76437014,   -0.01745329252,                0,    0.05235987756,99569.61059570312
70.69,      -0.28487599,       0.36346247,      -9.78401676,                0,                0,    0.06981317008,99568.85528564453
70.75,      -0.28487599,       0.37328578,      -9.79384007,                0,                0,    0.06981317008,99568.09234619141
70.86,      -0.28487599,       0.36346247,      -9.76437014,                0,   -0.01745329252,    0.06981317008,99567.32940673828
70.92,      -0.28487599,       0.37328578,      -9.79384007,   -0.01745329252,   -0.01745329252,    0.05235987756,99566.57409667969
71.01,      -0.26522937,       0.36346247,      -9.80366338,                0,   -0.01745329252,    0.05235987756,99565.81115722656
71.07,      -0.26522937,       0.38310909,      -9.79384007,                0,                0,    0.06981317008,99565.05584716797
71.15,      -0.27505268,       0.37328578,      -9.80366338,                0,    0.01745329252,    0.05235987756,99564.30053710938
71.22,      -0.27505268,       0.37328578,      -9.81348669,                0,    0.01745329252,    0.06981317008,99563.53759765625
