time,accX,accY,accZ,wRoll,wPitch,wYaw,Pa
0.09,      -0.34381585,       0.28487599,      -9.69560697,    0.01745329252,                0,     0.0872664626,100013.9999389648
0.13,       -0.43222564,        0.34381585,-9.646490419999999,                 0,     0.03490658504,      0.0872664626,  100015.998840332
0.17,       -0.10805641,         0.1964662,-9.558080629999999,    -0.05235987756,     0.05235987756,     0.12217304764, 100013.9999389648
0.21,                 0,       -0.07858648,-9.666137040000001,    -0.03490658504,     0.01745329252,     0.15707963268, 100014.9993896484
0.25,       -0.04911655,                 0,-9.558080629999999,    -0.01745329252,     0.01745329252,     0.15707963268, 100013.0004882812
0.28,     -0.16699627,      0.13752634,      -9.5286107,               0,               0,   0.12217304764,100015.998840332
0.31,       -0.16699627,       -0.07858648,-9.558080629999999,     0.01745329252,    -0.01745329252,     0.10471975512, 100014.9993896484
0.35,       -0.10805641,       -0.13752634,-9.646490419999999,     0.05235987756,    -0.01745329252,     0.06981317008, 100012.0010375977
0.39,       -0.01964662,       -0.25540606,-9.666137040000001,     0.06981317008,                 0,     0.05235987756, 100016.9982910156
0.41,       -0.01964662,       -0.31434592,-9.666137040000001,     0.05235987756,                 0,     0.12217304764,  100015.998840332
0.44,       -0.07858648,       -0.34381585,-9.842956620000001,     0.06981317008,                 0,     0.13962634016, 100017.9977416992
0.48,        0.01964662,       -0.28487599,-9.842956620000001,     0.03490658504,                 0,     0.12217304764, 100016.9982910156
0.52,       0.04911655,      -0.31434592,      -9.81348669,    0.01745329252,    0.03490658504,     0.0872664626,100014.9993896484
0.59,        0.01964662,       -0.16699627,-9.931366410000001,     0.01745329252,     0.03490658504,     0.01745329252, 100009.0026855469
0.66,        0.22593613,       -0.04911655,-9.842956620000001,                 0,     0.06981317008,    -0.03490658504, 100016.9982910156
0.72,       0.31434592,      -0.16699627,      -9.90189648,                0,    0.01745329252,   -0.06981317008,100021.0037231445
0.79,       0.40275571,      -0.31434592,      -9.99030627,                0,   -0.01745329252,   -0.03490658504,100013.9999389648
0.85,       0.16699627,      -0.28487599,     -10.07871606,   -0.01745329252,   -0.06981317008,   -0.03490658504,100018.9971923828
0.91,       0.04911655,       -0.1964662,      -9.96083634,   -0.03490658504,   -0.03490658504,   -0.03490658504,100009.0026855469
0.99,       -0.01964662,        -0.1964662,-9.842956620000001,    -0.01745329252,     0.03490658504,    -0.01745329252, 100012.0010375977
1.05,       -0.04911655,       -0.10805641,-9.842956620000001,    -0.03490658504,     0.06981317008,                 0, 100013.9999389648
1.12,        0.07858648,                 0,-9.666137040000001,    -0.01745329252,     0.06981317008,     0.01745329252, 100016.9982910156
1.19,       0.16699627,      -0.07858648,      -9.61702049,                0,    0.03490658504,    0.03490658504,100014.9993896484
1.25,        0.04911655,       -0.04911655,-9.558080629999999,    -0.01745329252,                 0,     0.05235987756, 100008.0032348633
1.31,       0.07858648,      -0.13752634,      -9.61702049,    0.01745329252,   -0.01745329252,    0.06981317008,100014.9993896484
1.37,       -0.07858648,       -0.34381585,-9.754546830000001,     0.03490658504,    -0.03490658504,      0.0872664626, 100016.9982910156
1.44,      -0.13752634,      -0.40275571,      -9.87242655,                0,                0,    0.10471975512,100016.9982910156
1.51,      -0.07858648,      -0.52063543,      -9.96083634,                0,                0,    0.05235987756,100013.9999389648
1.58,       0.22593613,       -0.4911655,      -9.90189648,   -0.03490658504,                0,                0,100013.0004882812
1.64,         0.4911655,        -0.4911655,-9.725076899999999,                 0,                 0,    -0.03490658504, 100013.9999389648
1.71,       0.40275571,      -0.37328578,      -9.69560697,                0,                0,                0,100013.0004882812
1.77,        0.46169557,        -0.1964662,-9.725076899999999,     0.06981317008,    -0.05235987756,                 0, 100013.0004882812
1.85,        0.16699627,       -0.31434592,-9.725076899999999,      0.1745329252,    -0.10471975512,                 0, 100013.9999389648
1.92,      -0.31434592,      -0.13752634,      -9.69560697,    0.15707963268,   -0.05235987756,    0.01745329252,100019.9966430664
1.98,       -0.28487599,       -0.01964662,-9.842956620000001,     0.12217304764,                 0,     0.03490658504, 100012.0010375977
2.04,       -0.28487599,        0.04911655,-9.754546830000001,     0.03490658504,                 0,     0.05235987756, 100013.0004882812
2.12,      -0.22593613,       0.22593613,      -9.78401676,    0.01745329252,                0,    0.03490658504,100016.9982910156
2.19,      -0.10805641,       0.31434592,      -9.58755056,    0.03490658504,   -0.03490658504,    0.05235987756,100013.0004882812
2.25,       -0.31434592,        0.25540606,-9.666137040000001,     0.06981317008,    -0.06981317008,     0.05235987756, 100018.9971923828
2.32,       -0.40275571,         0.1964662,-9.666137040000001,      0.0872664626,     -0.0872664626,     0.06981317008, 100016.9982910156
2.39,       -0.37328578,        0.13752634,-9.646490419999999,     0.06981317008,    -0.05235987756,      0.0872664626, 100016.9982910156
2.46,      -0.62869184,       0.10805641,      -9.87242655,    0.03490658504,   -0.05235987756,     0.0872664626,100011.0015869141
2.53,       -0.65816177,        0.31434592,-9.754546830000001,                 0,    -0.01745329252,     0.06981317008, 100013.9999389648
2.58,      -0.71710163,       0.25540606,      -9.81348669,    0.01745329252,   -0.06981317008,     0.0872664626,100013.9999389648
2.64,       -0.62869184,        0.34381585,-9.725076899999999,     0.05235987756,    -0.05235987756,      0.0872664626, 100014.9993896484
2.71,       -0.56975198,        0.46169557,-9.666137040000001,     0.06981317008,    -0.03490658504,     0.05235987756, 100017.9977416992
2.78,       -0.56975198,        0.37328578,-9.754546830000001,     0.05235987756,    -0.06981317008,     0.05235987756, 100012.0010375977
2.85,     -0.56975198,      0.34381585,     -9.90189648,   0.06981317008,  -0.06981317008,               0,100015.998840332
2.89,       -0.56975198,        0.13752634,-9.725076899999999,     0.06981317008,    -0.03490658504,                 0,  100015.998840332
2.96,      -0.71710163,        0.1964662,      -9.90189648,    0.03490658504,   -0.03490658504,   -0.03490658504,100011.0015869141
3.03,      -0.62869184,      -0.07858648,      -10.0197762,    0.03490658504,   -0.06981317008,   -0.06981317008,100009.0026855469
3.1,      -0.46169557,      -0.13752634,      -9.87242655,   -0.03490658504,   -0.05235987756,   -0.06981317008,100011.0015869141
3.17,      -0.46169557,      -0.07858648,      -10.0197762,   -0.06981317008,   -0.06981317008,   -0.03490658504,100014.9993896484
3.24,        -0.4911655,                 0,-9.931366410000001,    -0.03490658504,    -0.06981317008,    -0.05235987756, 100014.9993896484
3.3,        -0.4911655,       -0.04911655,-9.725076899999999,    -0.01745329252,    -0.03490658504,                 0, 100012.0010375977
3.37,      -0.55010536,      -0.07858648,      -9.61702049,    0.03490658504,   -0.01745329252,   -0.06981317008,100013.9999389648
3.43,       -0.56975198,       -0.01964662,-9.646490419999999,     0.10471975512,                 0,    -0.13962634016,  100015.998840332
3.51,        -0.6876317,       -0.22593613,-9.842956620000001,     0.12217304764,    -0.01745329252,     -0.1745329252, 100017.9977416992
3.57,      -0.80551142,      -0.43222564,      -9.96083634,     0.0872664626,   -0.03490658504,    -0.1745329252,100013.9999389648
3.64,      -0.71710163,      -0.37328578,      -9.78401676,    0.06981317008,                0,   -0.19198621772,100013.0004882812
3.71,       -0.46169557,       -0.13752634,-9.754546830000001,                 0,    -0.01745329252,    -0.19198621772, 100013.9999389648
3.77,      -0.43222564,       0.10805641,      -9.87242655,   -0.03490658504,    -0.0872664626,   -0.20943951024,100013.9999389648
3.85,     -0.65816177,       0.1964662,     -9.69560697,  -0.03490658504,  -0.13962634016,  -0.29670597284,100015.998840332
3.91,       -0.80551142,        0.22593613,-9.666137040000001,    -0.05235987756,    -0.13962634016,    -0.29670597284,  100015.998840332
3.98,       -0.80551142,        0.01964662,-9.725076899999999,    -0.01745329252,    -0.13962634016,     -0.3490658504,  100015.998840332
4.05,      -0.77604149,      -0.10805641,      -9.58755056,   -0.01745329252,    -0.0872664626,   -0.41887902048,100016.9982910156
4.12,       -0.71710163,       -0.10805641,-9.666137040000001,    -0.03490658504,    -0.05235987756,    -0.47123889804,  100015.998840332
4.18,      -0.56975198,      -0.31434592,      -9.69560697,   -0.05235987756,   -0.06981317008,   -0.48869219056,100021.0037231445
4.25,       -0.4911655,      -0.37328578,      -9.58755056,   -0.05235987756,   -0.06981317008,   -0.50614548308,100014.9993896484
4.32,      -0.62869184,      -0.52063543,      -9.81348669,   -0.01745329252,   -0.13962634016,   -0.48869219056,100023.0026245117
4.37,      -0.71710163,      -0.40275571,      -9.69560697,                0,   -0.15707963268,   -0.48869219056,100016.9982910156
4.44,     -0.89392121,     -0.22593613,     -9.78401676,               0,  -0.12217304764,  -0.50614548308,100015.998840332
4.48,       -1.10021072,       -0.01964662,-9.666137040000001,    -0.03490658504,     -0.0872664626,    -0.62831853072, 100013.9999389648
4.54,      -1.04127086,       -0.1964662,      -9.78401676,   -0.06981317008,   -0.13962634016,    -0.6981317008,100013.0004882812
4.59,      -0.95286107,      -0.43222564,      -9.90189648,   -0.10471975512,   -0.15707963268,   -0.66322511576,100012.0010375977
4.66,         -0.982331,        0.04911655,-9.469670839999999,    -0.15707963268,    -0.15707963268,    -0.62831853072, 100012.0010375977
4.73,       -1.20826713,        0.13752634,-9.725076899999999,    -0.15707963268,    -0.19198621772,    -0.59341194568, 100009.0026855469
4.81,      -1.23773706,       0.25540606,      -9.69560697,    -0.0872664626,    -0.1745329252,   -0.59341194568,100011.0015869141
4.87,        -1.41455664,         0.43222564, -9.666137040000001,     -0.10471975512,     -0.15707963268,-0.5759586531600001,  100018.9971923828
4.93,      -1.41455664,       0.40275571,      -9.78401676,    -0.0872664626,   -0.10471975512,   -0.47123889804,100016.9982910156
5,       -1.50296643,         0.4911655,-9.931366410000001,    -0.03490658504,    -0.10471975512,    -0.40142572796, 100013.9999389648
5.07,       -1.67978601,        0.77604149,-9.725076899999999,    -0.01745329252,    -0.01745329252,     -0.3490658504, 100013.0004882812
5.13,       -1.84678228,        0.83498135,-9.842956620000001,                 0,     0.01745329252,    -0.31415926536, 100013.0004882812
5.2,      -1.81731235,       0.71710163,      -10.0197762,                0,    0.03490658504,   -0.24434609528,100017.9977416992
5.27,      -1.99413193,       0.59922191,     -10.07871606,   -0.05235987756,    0.06981317008,   -0.10471975512,100022.0031738281
5.33,      -1.78784242,       0.77604149,      -10.0197762,   -0.01745329252,    0.06981317008,   -0.10471975512,100009.0026855469
5.41,      -1.67978601,        0.6876317,      -9.90189648,    0.03490658504,     0.0872664626,   -0.10471975512,100014.9993896484
5.48,      -1.56190629,       0.74657156,      -9.99030627,                0,    0.12217304764,   -0.06981317008,100013.9999389648
5.54,      -1.53243636,       0.56975198,      -9.90189648,                0,     0.0872664626,   -0.06981317008,100016.9982910156
5.6,       -1.59137622,        0.52063543,-9.931366410000001,                 0,     0.10471975512,    -0.03490658504, 100016.9982910156
5.68,      -1.41455664,       0.43222564,      -9.78401676,   -0.03490658504,     0.0872664626,   -0.01745329252,100013.9999389648
5.74,      -1.32614685,       0.25540606,      -9.58755056,   -0.01745329252,    0.06981317008,                0,100016.9982910156
5.81,       -1.32614685,        0.46169557,-9.666137040000001,    -0.15707963268,     0.03490658504,     0.03490658504, 100011.0015869141
5.87,       -1.29667692,        0.59922191,-9.646490419999999,     -0.1745329252,                 0,                 0,  100015.998840332
5.94,       -1.44402657,        0.59922191,-9.754546830000001,    -0.10471975512,    -0.01745329252,     0.01745329252,  100015.998840332
6.01,       -1.62084615,        0.59922191,-9.931366410000001,    -0.12217304764,    -0.03490658504,      0.0872664626, 100016.9982910156
6.08,     -1.29667692,      0.77604149,     -9.58755056,  -0.10471975512,               0,   0.12217304764,100015.998840332
6.14,        -1.1787972,        0.92339114,-9.754546830000001,                 0,     0.01745329252,     0.13962634016, 100009.0026855469
6.22,      -1.35561678,       0.74657156,     -10.04924613,    0.10471975512,    0.05235987756,    0.13962634016,100018.9971923828
6.26,      -1.50296643,        0.6876317,     -10.13765592,    0.06981317008,     0.0872664626,     0.1745329252,100010.0021362305
6.33,      -1.29667692,       0.62869184,     -10.10818599,                0,    0.15707963268,    0.13962634016,100021.0037231445
6.38,       -1.29667692,        0.65816177,-9.931366410000001,    -0.01745329252,     0.22689280276,     0.13962634016,  100015.998840332
6.44,      -1.26720699,       0.65816177,     -10.10818599,   -0.03490658504,    0.24434609528,    0.19198621772,100010.0021362305
6.51,      -0.95286107,       0.46169557,     -10.16712585,    -0.0872664626,     0.2617993878,    0.31415926536,100011.0015869141
6.57,      -0.92339114,       0.59922191,      -10.0197762,   -0.06981317008,     0.2617993878,    0.38397243544,100014.9993896484
6.64,      -1.04127086,       0.52063543,     -10.16712585,   -0.03490658504,     0.2617993878,    0.40142572796,100009.0026855469
6.7,      -1.12968065,       0.46169557,      -10.0197762,   -0.06981317008,    0.36651914292,    0.40142572796,100013.0004882812
6.76,       -1.10021072,        0.65816177,-9.754546830000001,    -0.10471975512,     0.40142572796,     0.41887902048, 100017.9977416992
6.83,       -0.65816177,        0.71710163,-9.666137040000001,    -0.05235987756,     0.38397243544,     0.36651914292, 100014.9993896484
6.9,       -0.10805641,        0.55010536,-9.646490419999999,    -0.05235987756,     0.31415926536,     0.40142572796, 100013.0004882812
6.96,      -0.04911655,       0.43222564,      -9.69560697,   -0.06981317008,    0.22689280276,    0.48869219056,100014.9993896484
7.04,       -0.01964662,         0.6876317,-9.558080629999999,    -0.05235987756,     0.20943951024,       0.436332313, 100016.9982910156
7.1,        0.16699627,         0.6876317,-9.558080629999999,    -0.06981317008,      0.1745329252,     0.36651914292, 100017.9977416992
7.17,        0.22593613,        0.59922191,-9.725076899999999,    -0.12217304764,     0.13962634016,     0.33161255788, 100010.0021362305
7.24,       0.28487599,       0.86445128,      -9.35179112,   -0.15707963268,    0.10471975512,    0.36651914292,100010.0021362305
7.3,       0.56975198,       0.74657156,      -9.44020091,   -0.12217304764,   -0.01745329252,    0.41887902048,100013.0004882812
7.37,       0.59922191,       0.31434592,      -9.35179112,   -0.03490658504,   -0.15707963268,    0.40142572796,100013.9999389648
7.43,        0.34381585,        0.31434592,-9.204441470000001,     0.01745329252,     -0.1745329252,       0.436332313,  100015.998840332
7.51,        0.10805641,        0.40275571,-9.292851260000001,     0.06981317008,    -0.13962634016,     0.41887902048, 100014.9993896484
7.57,      -0.07858648,       0.31434592,      -9.58755056,     0.1745329252,   -0.12217304764,    0.29670597284,100016.9982910156
7.64,      -0.22593613,       0.22593613,       -9.5286107,    0.19198621772,   -0.10471975512,    0.20943951024,100022.0031738281
7.71,      -0.25540606,       0.16699627,      -9.49914077,    0.10471975512,    -0.0872664626,    0.22689280276,100014.9993896484
7.78,       -0.1964662,       0.01964662,      -9.35179112,    0.13962634016,   -0.06981317008,    0.20943951024,100013.0004882812
7.85,       -0.07858648,       -0.31434592,-9.725076899999999,     0.12217304764,     -0.0872664626,     0.15707963268, 100013.0004882812
7.92,      -0.22593613,      -0.46169557,      -9.90189648,     0.0872664626,   -0.10471975512,    0.10471975512,100016.9982910156
7.98,      -0.55010536,      -0.46169557,      -9.96083634,                0,   -0.10471975512,    0.06981317008,100014.9993896484
8.05,       -0.46169557,       -0.28487599,-9.842956620000001,     -0.0872664626,    -0.06981317008,                 0, 100023.0026245117
8.13,       -0.28487599,       -0.25540606,-9.931366410000001,    -0.13962634016,    -0.06981317008,    -0.05235987756, 100021.0037231445
8.17,      -0.16699627,      -0.37328578,      -9.87242655,   -0.10471975512,   -0.10471975512,    -0.0872664626,100014.9993896484
8.24,       -0.1964662,      -0.28487599,      -9.81348669,    -0.1745329252,   -0.13962634016,                0,100009.0026855469
8.31,      -0.31434592,      -0.16699627,      -9.87242655,   -0.13962634016,    -0.1745329252,                0,100012.0010375977
8.38,       -0.52063543,        0.01964662,-9.725076899999999,    -0.06981317008,    -0.12217304764,    -0.01745329252, 100017.9977416992
8.42,      -0.43222564,      -0.01964662,      -9.87242655,   -0.03490658504,    -0.0872664626,   -0.05235987756,100017.9977416992
8.49,      -0.34381585,       -0.1964662,      -9.87242655,    0.03490658504,   -0.06981317008,   -0.06981317008,100010.0021362305
8.56,       -0.37328578,       -0.13752634,-9.842956620000001,     0.03490658504,    -0.03490658504,    -0.05235987756, 100016.9982910156
8.6,      -0.40275571,      -0.07858648,     -10.04924613,    0.01745329252,   -0.06981317008,   -0.10471975512,100019.9966430664
8.68,     -0.37328578,     -0.25540606,     -10.0197762,  -0.01745329252,   -0.0872664626,  -0.12217304764,100015.998840332
8.74,       -0.34381585,        -0.1964662,-9.842956620000001,     -0.0872664626,    -0.06981317008,    -0.05235987756,  100015.998840332
8.8,     -0.31434592,      0.01964662,     -9.81348669,   -0.0872664626,  -0.05235987756,  -0.03490658504,100015.998840332
8.87,      -0.55010536,       0.07858648,      -9.78401676,   -0.03490658504,   -0.10471975512,    0.05235987756,100012.0010375977
8.93,       -0.89392121,         0.1964662,-9.754546830000001,                 0,    -0.13962634016,     0.03490658504, 100019.9966430664
8.99,      -0.92339114,        0.1964662,      -9.58755056,    0.03490658504,    -0.0872664626,     0.0872664626,100007.0037841797
9.05,      -0.86445128,      -0.10805641,      -9.90189648,    0.03490658504,   -0.10471975512,    0.24434609528,100012.0010375977
9.12,      -0.83498135,      -0.10805641,     -10.10818599,    0.03490658504,   -0.19198621772,    0.36651914292,100013.0004882812
9.2,       -1.20826713,        0.31434592,-9.931366410000001,      0.0872664626,    -0.15707963268,      0.2617993878, 100016.9982910156
9.27,     -1.56190629,      0.28487599,     -9.78401676,   0.01745329252,  -0.06981317008,   0.15707963268,100015.998840332
9.33,      -1.38508671,       0.04911655,      -9.96083634,   -0.01745329252,    0.01745329252,    0.13962634016,100017.9977416992
9.4,      -1.53243636,       0.25540606,      -9.87242655,   -0.03490658504,    0.06981317008,     0.0872664626,100013.9999389648
9.47,      -1.23773706,      -0.01964662,      -9.90189648,   -0.01745329252,    0.10471975512,    0.03490658504,100013.0004882812
9.54,       -1.23773706,       -0.25540606,-9.754546830000001,     -0.0872664626,      0.0872664626,                 0, 100013.0004882812
9.61,       -1.41455664,       -0.22593613,-9.754546830000001,    -0.12217304764,     0.06981317008,    -0.03490658504, 100017.9977416992
9.68,       -1.29667692,       -0.40275571,-9.666137040000001,    -0.13962634016,     0.05235987756,    -0.03490658504, 100016.9982910156
9.75,     -1.04127086,     -0.46169557,     -9.49914077,   -0.1745329252,               0,   0.01745329252,100015.998840332
9.81,       -0.83498135,       -0.43222564,-9.558080629999999,    -0.12217304764,                 0,     0.01745329252, 100023.0026245117
9.88,      -0.80551142,      -0.01964662,       -9.5286107,    -0.0872664626,    0.01745329252,    0.05235987756,100023.0026245117
9.95,       -0.77604149,         0.1964662,-9.646490419999999,    -0.06981317008,    -0.05235987756,     0.12217304764, 100016.9982910156
10.02,       -0.83498135,        0.25540606,-9.754546830000001,    -0.01745329252,    -0.19198621772,     0.20943951024, 100021.0037231445
10.09,      -1.01180093,        0.1964662,      -9.78401676,    0.03490658504,   -0.31415926536,    0.29670597284,100018.9971923828
10.15,      -1.10021072,       0.01964662,      -9.81348669,    0.13962634016,   -0.33161255788,    0.33161255788,100019.9966430664
10.22,      -1.26720699,       0.28487599,      -9.87242655,     0.1745329252,   -0.15707963268,    0.31415926536,100016.9982910156
10.29,      -1.29667692,       0.34381585,      -10.0197762,     0.1745329252,   -0.03490658504,    0.19198621772,100021.0037231445
10.36,      -1.01180093,       0.22593613,     -10.10818599,    0.13962634016,                0,    0.12217304764,100011.0015869141
10.42,      -0.74657156,       0.22593613,      -9.87242655,    0.05235987756,                0,     0.0872664626,100021.0037231445
10.5,       -0.80551142,        0.65816177,-9.842956620000001,                 0,                 0,      0.0872664626, 100013.0004882812
10.56,       -0.92339114,        0.74657156,-9.725076899999999,     0.06981317008,                 0,     0.06981317008, 100024.0020751953
10.61,      -0.95286107,       0.65816177,      -9.69560697,    0.10471975512,   -0.01745329252,    0.12217304764,100021.0037231445
10.68,     -1.01180093,      0.46169557,    -10.16712585,   0.10471975512,  -0.10471975512,   0.15707963268,100015.998840332
10.75,      -0.89392121,        0.4911655,     -10.07871606,    0.12217304764,   -0.10471975512,    0.05235987756,100014.9993896484
10.82,       -0.74657156,        0.80551142,-9.931366410000001,                 0,    -0.05235987756,    -0.03490658504, 100019.9966430664
10.88,      -0.71710163,       0.83498135,      -10.0197762,   -0.05235987756,   -0.01745329252,   -0.12217304764,100014.9993896484
10.95,       -0.77604149,        0.77604149,-9.931366410000001,    -0.10471975512,    -0.03490658504,    -0.12217304764, 100017.9977416992
11.02,      -0.80551142,       0.89392121,      -9.87242655,   -0.12217304764,   -0.03490658504,   -0.12217304764,100016.9982910156
11.09,      -0.80551142,       0.86445128,      -9.78401676,   -0.06981317008,    -0.0872664626,   -0.15707963268,100019.9966430664
11.15,       -1.07074079,        0.80551142,-9.842956620000001,    -0.10471975512,    -0.10471975512,    -0.22689280276, 100023.0026245117
11.22,       -0.89392121,        0.62869184,-9.931366410000001,    -0.13962634016,    -0.06981317008,    -0.24434609528, 100012.0010375977
11.29,      -0.89392121,       0.74657156,      -9.69560697,   -0.13962634016,   -0.03490658504,   -0.22689280276,100009.0026855469
11.35,      -1.01180093,       0.92339114,      -9.61702049,   -0.15707963268,                0,   -0.24434609528,100014.9993896484
11.41,       -1.01180093,        0.77604149,-9.754546830000001,    -0.13962634016,    -0.03490658504,    -0.27925268032,  100015.998840332
11.48,      -1.26720699,       0.86445128,      -9.61702049,   -0.12217304764,   -0.05235987756,   -0.24434609528,100012.0010375977
11.54,      -1.35561678,       1.01180093,      -9.58755056,   -0.10471975512,                0,    -0.2617993878,100010.0021362305
11.61,     -1.38508671,      1.04127086,     -9.78401676,   -0.0872664626,               0,  -0.24434609528,100015.998840332
11.67,       -1.50296643,        1.12968065,-9.754546830000001,    -0.05235987756,                 0,     -0.1745329252, 100013.9999389648
11.75,      -1.53243636,       1.32614685,      -9.49914077,   -0.03490658504,    0.03490658504,    -0.1745329252,100012.0010375977
11.82,       -1.59137622,        1.26720699,-9.666137040000001,                 0,     0.01745329252,     -0.1745329252, 100012.0010375977
11.88,       -1.62084615,        1.35561678,-9.558080629999999,    -0.03490658504,     0.01745329252,    -0.15707963268, 100011.0015869141
11.95,      -1.62084615,       1.38508671,       -9.5286107,   -0.05235987756,                0,   -0.15707963268,100012.0010375977
12.02,       -1.56190629,        1.29667692,-9.754546830000001,                 0,    -0.01745329252,    -0.12217304764,  100015.998840332
12.07,      -1.65031608,       1.29667692,      -9.61702049,                0,    0.01745329252,    -0.0872664626,100014.9993896484
12.14,       -1.75837249,        1.26720699,-9.666137040000001,                 0,     0.05235987756,    -0.10471975512, 100018.9971923828
12.18,      -1.72890256,       1.12968065,      -9.78401676,    0.01745329252,    0.06981317008,   -0.06981317008,100010.0021362305
12.26,      -1.65031608,       1.12968065,      -9.69560697,    0.03490658504,    0.06981317008,   -0.05235987756,100016.9982910156
12.32,      -1.75837249,       1.12968065,      -9.61702049,    0.03490658504,    0.03490658504,   -0.06981317008,100018.9971923828
12.39,      -1.75837249,       0.89392121,      -9.69560697,    0.03490658504,    0.05235987756,   -0.06981317008,100014.9993896484
12.46,       -1.50296643,        0.83498135,-9.558080629999999,                 0,     0.06981317008,    -0.05235987756, 100014.9993896484
12.52,      -1.26720699,         0.982331,      -9.58755056,   -0.01745329252,    0.05235987756,   -0.01745329252,100016.9982910156
12.6,        -1.1787972,        0.89392121,-9.754546830000001,                 0,     0.03490658504,    -0.03490658504, 100008.0032348633
12.66,      -1.07074079,       0.86445128,      -9.78401676,                0,                0,                0,100011.0015869141
12.72,       -0.80551142,        0.86445128,-9.754546830000001,    -0.01745329252,    -0.03490658504,     0.06981317008, 100018.9971923828
12.8,       -1.01180093,        0.89392121,-9.754546830000001,                 0,    -0.05235987756,     0.01745329252,  100015.998840332
12.84,      -1.20826713,       1.07074079,      -9.49914077,                0,   -0.01745329252,    0.01745329252,100012.0010375977
12.91,      -1.41455664,       1.14932727,      -9.61702049,    0.06981317008,   -0.03490658504,     0.0872664626,100018.9971923828
12.98,       -1.01180093,        0.95286107,-9.842956620000001,     0.13962634016,     -0.0872664626,     0.06981317008, 100014.9993896484
13.05,      -0.83498135,       0.83498135,      -9.78401676,    0.10471975512,   -0.05235987756,     0.1745329252,100022.0031738281
13.11,       -0.77604149,        1.01180093,-9.725076899999999,      0.0872664626,                 0,     0.24434609528, 100018.9971923828
13.18,      -0.65816177,       1.20826713,      -9.87242655,    0.13962634016,                0,    0.24434609528,100017.9977416992
13.25,      -0.80551142,       0.89392121,      -9.81348669,     0.1745329252,    0.01745329252,    0.27925268032,100014.9993896484
13.31,      -0.89392121,       0.92339114,      -9.81348669,    0.12217304764,    0.05235987756,    0.20943951024,100024.0020751953
13.38,      -0.95286107,        0.6876317,      -10.0197762,     0.0872664626,                0,    0.19198621772,100016.9982910156
13.45,      -0.95286107,       0.59922191,      -9.87242655,    0.01745329252,    0.01745329252,    0.19198621772,100013.9999389648
13.52,       -0.80551142,        0.59922191,-9.646490419999999,     0.01745329252,     0.05235987756,     0.22689280276, 100013.9999389648
13.59,        -0.982331,        0.6876317,      -9.90189648,     0.0872664626,                0,     0.2617993878,100018.9971923828
13.66,      -0.95286107,       0.74657156,      -9.81348669,    0.10471975512,                0,     0.3490658504,100022.0031738281
13.73,      -0.80551142,        0.6876317,      -9.61702049,    0.05235987756,    0.05235987756,    0.38397243544,100013.0004882812
13.79,       -1.14932727,        0.83498135,-9.646490419999999,     0.03490658504,     0.05235987756,     0.41887902048, 100019.9966430664
13.87,       -1.07074079,        0.89392121,-9.754546830000001,     0.06981317008,      0.0872664626,     0.36651914292, 100009.0026855469
13.93,       -0.86445128,        0.71710163,-9.646490419999999,      0.0872664626,     0.06981317008,     0.29670597284,  100015.998840332
14,       -0.86445128,        0.59922191,-9.666137040000001,     0.05235987756,     0.06981317008,     0.27925268032, 100012.0010375977
14.07,       -0.77604149,        0.59922191,-9.725076899999999,                 0,     0.03490658504,      0.2617993878, 100013.9999389648
14.14,       -0.71710163,        0.55010536,-9.666137040000001,    -0.03490658504,    -0.01745329252,     0.27925268032, 100014.9993896484
14.21,       -0.80551142,        0.37328578,-9.725076899999999,    -0.03490658504,    -0.01745329252,     0.27925268032, 100013.0004882812
14.27,      -0.80551142,       0.40275571,      -9.69560697,   -0.03490658504,                0,     0.2617993878,100014.9993896484
14.35,     -0.80551142,      0.37328578,     -9.87242655,  -0.05235987756,               0,   0.29670597284,100015.998840332
14.42,      -0.83498135,       0.25540606,      -9.81348669,   -0.01745329252,   -0.01745329252,    0.33161255788,100013.9999389648
14.48,       -0.86445128,        0.46169557,-9.725076899999999,     0.03490658504,                 0,     0.36651914292, 100014.9993896484
14.56,       -0.92339114,        0.37328578,-9.842956620000001,     0.10471975512,                 0,      0.3490658504, 100014.9993896484
14.62,       -0.92339114,        0.16699627,-9.666137040000001,     0.13962634016,     0.03490658504,      0.3490658504, 100019.9966430664
14.68,       -0.83498135,                 0,-9.725076899999999,     0.10471975512,     0.05235987756,     0.36651914292, 100013.9999389648
14.76,       -0.74657156,       -0.16699627,-9.931366410000001,     0.05235987756,     0.01745329252,     0.40142572796, 100016.9982910156
14.82,       -0.83498135,       -0.04911655,-9.931366410000001,     0.05235987756,    -0.01745329252,     0.40142572796, 100017.9977416992
14.89,       -0.89392121,        0.01964662,-9.931366410000001,                 0,                 0,     0.38397243544, 100017.9977416992
14.95,      -0.80551142,       0.01964662,      -9.87242655,    0.01745329252,                0,    0.36651914292,100013.9999389648
15.02,       -0.86445128,       -0.01964662,-9.931366410000001,     0.05235987756,     0.01745329252,     0.31415926536, 100013.0004882812
15.09,       -0.77604149,       -0.01964662,-9.754546830000001,     0.03490658504,     0.06981317008,      0.3490658504,  100015.998840332
15.16,       -0.65816177,       -0.16699627,-9.842956620000001,     0.01745329252,     0.05235987756,      0.3490658504, 100017.9977416992
15.23,       -0.6876317,      -0.04911655,      -9.96083634,    0.01745329252,                0,    0.36651914292,100013.0004882812
15.29,      -0.89392121,      -0.04911655,      -9.90189648,    0.03490658504,    0.01745329252,    0.36651914292,100013.0004882812
15.37,       -0.89392121,                 0,-9.725076899999999,     0.03490658504,     0.06981317008,     0.36651914292, 100014.9993896484
15.41,       -0.83498135,        0.04911655,-9.842956620000001,     0.05235987756,     0.10471975512,      0.3490658504, 100009.0026855469
15.49,       -0.80551142,        0.04911655,-9.842956620000001,      0.0872664626,      0.0872664626,     0.31415926536, 100021.0037231445
15.55,       -0.59922191,       -0.04911655,-9.754546830000001,     0.06981317008,      0.0872664626,     0.27925268032, 100011.0015869141
15.62,       -0.65816177,        0.01964662,-9.725076899999999,                 0,     0.03490658504,     0.33161255788,  100015.998840332
15.68,        -0.6876317,       -0.10805641,-9.754546830000001,     0.05235987756,     0.01745329252,     0.36651914292,  100015.998840332
15.76,       -0.74657156,                 0,-9.725076899999999,      0.0872664626,     0.03490658504,     0.38397243544, 100012.0010375977
15.82,       -0.65816177,        0.04911655,-9.754546830000001,     0.05235987756,     0.05235987756,     0.38397243544, 100014.9993896484
15.9,     -0.65816177,      0.07858648,     -9.87242655,   0.01745329252,   0.03490658504,    0.3490658504,100015.998840332
15.96,      -0.74657156,       0.22593613,      -9.87242655,   -0.01745329252,    0.03490658504,    0.33161255788,100016.9982910156
16.03,      -0.62869184,       0.22593613,      -9.78401676,   -0.03490658504,    0.03490658504,    0.31415926536,100017.9977416992
16.1,       -0.52063543,         0.1964662,-9.842956620000001,                 0,                 0,     0.31415926536, 100022.0031738281
16.17,       -0.65816177,        0.04911655,-9.842956620000001,     0.03490658504,                 0,     0.27925268032, 100013.0004882812
16.22,      -0.65816177,       0.07858648,      -9.69560697,                0,                0,    0.27925268032,100013.9999389648
16.28,       -0.55010536,        0.01964662,-9.725076899999999,                 0,     0.01745329252,     0.27925268032, 100016.9982910156
16.35,      -0.59922191,      -0.04911655,      -9.90189648,                0,                0,    0.27925268032,100019.9966430664
16.41,      -0.65816177,       0.10805641,      -9.81348669,   -0.01745329252,                0,    0.27925268032,100013.9999389648
16.48,       -0.65816177,       -0.04911655,-9.725076899999999,                 0,    -0.01745329252,      0.2617993878,  100015.998840332
16.55,       -0.56975198,       -0.10805641,-9.725076899999999,                 0,    -0.01745329252,     0.24434609528, 100018.9971923828
16.61,      -0.46169557,       0.01964662,      -9.78401676,                0,                0,     0.1745329252,100018.9971923828
16.68,       -0.4911655,      -0.04911655,      -9.81348669,   -0.01745329252,   -0.01745329252,    0.20943951024,100022.0031738281
16.75,       -0.52063543,       -0.16699627,-9.842956620000001,    -0.01745329252,    -0.03490658504,     0.22689280276, 100026.0009765625
16.82,      -0.59922191,       0.04911655,      -9.87242655,   -0.01745329252,                0,    0.29670597284,100017.9977416992
16.89,       -0.86445128,        0.28487599,-9.754546830000001,     0.01745329252,                 0,     0.27925268032, 100023.0026245117
16.95,      -0.77604149,        0.1964662,      -9.87242655,    0.10471975512,                0,    0.19198621772,100010.0021362305
17.02,       -0.59922191,        0.22593613,-9.842956620000001,     0.03490658504,     0.03490658504,     0.15707963268, 100007.0037841797
17.1,      -0.59922191,       0.04911655,      -9.69560697,                0,    0.01745329252,     0.1745329252,100016.9982910156
17.16,      -0.62869184,      -0.07858648,      -9.69560697,    0.03490658504,   -0.01745329252,    0.20943951024,100024.0020751953
17.23,       -0.74657156,        0.10805641,-9.646490419999999,     0.01745329252,    -0.03490658504,     0.24434609528, 100012.0010375977
17.3,      -0.77604149,       0.16699627,      -9.44020091,                0,   -0.03490658504,    0.20943951024,100011.0015869141
17.36,      -0.92339114,       0.10805641,      -9.58755056,    0.05235987756,   -0.05235987756,    0.12217304764,100017.9977416992
17.43,      -1.01180093,       0.13752634,      -9.69560697,    0.03490658504,   -0.05235987756,    0.10471975512,100013.9999389648
17.5,      -0.77604149,       0.13752634,      -9.58755056,    0.01745329252,                0,    0.06981317008,100017.9977416992
17.57,       -0.80551142,                 0,-9.666137040000001,     0.01745329252,                 0,     0.05235987756,  100015.998840332
17.63,       -0.83498135,        0.13752634,-9.754546830000001,                 0,    -0.01745329252,     0.03490658504, 100016.9982910156
17.7,      -0.83498135,       0.04911655,      -9.90189648,                0,   -0.03490658504,   -0.01745329252,100011.0015869141
17.77,      -0.83498135,       0.07858648,      -9.90189648,                0,   -0.01745329252,   -0.05235987756,100009.0026855469
17.84,     -0.95286107,      0.22593613,     -9.87242655,  -0.03490658504,  -0.03490658504,  -0.10471975512,100015.998840332
17.91,     -0.77604149,               0,     -9.87242655,  -0.03490658504,  -0.06981317008,  -0.13962634016,100015.998840332
17.97,      -0.74657156,      -0.22593613,      -9.87242655,   -0.03490658504,   -0.06981317008,   -0.15707963268,100009.0026855469
18.04,     -0.83498135,     -0.07858648,     -9.81348669,  -0.05235987756,  -0.05235987756,  -0.15707963268,100015.998840332
18.11,      -0.86445128,       0.07858648,      -9.90189648,   -0.03490658504,   -0.05235987756,   -0.13962634016,100014.9993896484
18.17,       -0.86445128,        0.16699627,-9.931366410000001,    -0.06981317008,    -0.05235987756,    -0.15707963268, 100014.9993896484
18.25,      -0.92339114,       0.25540606,      -9.90189648,   -0.06981317008,   -0.03490658504,   -0.19198621772,100011.0015869141
18.31,       -0.80551142,        0.31434592,-9.842956620000001,                 0,    -0.01745329252,    -0.22689280276, 100012.0010375977
18.38,        -0.982331,       0.37328578,      -9.78401676,   -0.05235987756,                0,   -0.20943951024,100012.0010375977
18.45,      -1.10021072,       0.34381585,      -9.78401676,   -0.06981317008,   -0.01745329252,   -0.24434609528,100016.9982910156
18.51,      -0.92339114,        0.1964662,      -9.78401676,   -0.01745329252,   -0.03490658504,    -0.2617993878,100022.0031738281
18.59,       -1.04127086,         0.1964662,-9.754546830000001,                 0,    -0.01745329252,     -0.2617993878, 100011.0015869141
18.65,       -1.20826713,        0.31434592,-9.754546830000001,    -0.03490658504,    -0.01745329252,    -0.29670597284, 100016.9982910156
18.72,       -1.12968065,        0.37328578,-9.754546830000001,    -0.12217304764,    -0.03490658504,     -0.3490658504, 100013.0004882812
18.78,      -1.07074079,        0.1964662,      -9.78401676,   -0.13962634016,   -0.05235987756,    -0.3490658504,100013.0004882812
18.85,       -1.04127086,        0.37328578,-9.646490419999999,    -0.12217304764,    -0.03490658504,    -0.38397243544,  100015.998840332
18.92,      -1.10021072,       0.40275571,      -9.61702049,   -0.10471975512,   -0.05235987756,   -0.36651914292,100013.0004882812
18.99,        -1.1787972,        0.28487599,-9.725076899999999,    -0.10471975512,    -0.05235987756,    -0.31415926536, 100013.0004882812
19.06,       -1.20826713,        0.40275571,-9.725076899999999,     -0.0872664626,    -0.06981317008,     -0.2617993878, 100023.0026245117
19.12,       -1.32614685,         0.4911655,-9.931366410000001,    -0.03490658504,    -0.06981317008,    -0.20943951024, 100014.9993896484
19.2,       -1.41455664,        0.55010536,-9.931366410000001,    -0.03490658504,    -0.03490658504,     -0.1745329252, 100013.0004882812
19.27,       -1.41455664,        0.62869184,-9.842956620000001,    -0.03490658504,    -0.01745329252,    -0.15707963268, 100011.0015869141
19.33,      -1.44402657,       0.62869184,     -10.04924613,   -0.03490658504,                0,    -0.1745329252,100017.9977416992
19.4,       -1.4734965,       0.71710163,      -9.90189648,   -0.05235987756,    0.01745329252,    -0.1745329252,100017.9977416992
19.45,      -1.41455664,        0.6876317,      -9.81348669,   -0.05235987756,    0.05235987756,   -0.15707963268,100010.0021362305
19.51,       -1.38508671,        0.71710163,-9.725076899999999,    -0.05235987756,     0.01745329252,    -0.13962634016, 100010.0021362305
19.58,      -1.26720699,       0.56975198,      -9.81348669,   -0.03490658504,    0.03490658504,   -0.15707963268,100017.9977416992
19.65,      -1.29667692,       0.62869184,      -9.81348669,   -0.05235987756,    0.03490658504,   -0.13962634016,100025.0015258789
19.72,       -1.29667692,        0.77604149,-9.842956620000001,    -0.06981317008,     0.03490658504,    -0.15707963268, 100013.0004882812
19.78,      -1.32614685,       0.86445128,      -9.96083634,    -0.0872664626,    0.01745329252,   -0.15707963268,100014.9993896484
19.83,       -1.29667692,        0.92339114,-9.931366410000001,    -0.05235987756,     0.01745329252,    -0.15707963268, 100021.0037231445
19.9,      -1.12968065,       0.77604149,      -9.81348669,                0,    0.06981317008,    -0.1745329252,100016.9982910156
19.97,      -1.23773706,        0.6876317,      -9.87242655,   -0.05235987756,    0.06981317008,   -0.13962634016,100013.0004882812
20.04,      -1.20826713,       0.71710163,      -9.81348669,   -0.10471975512,    0.10471975512,   -0.12217304764,100013.0004882812
20.1,       -1.07074079,        0.89392121,-9.725076899999999,    -0.12217304764,     0.06981317008,    -0.12217304764, 100017.9977416992
20.18,      -1.14932727,       0.92339114,      -9.78401676,   -0.05235987756,    0.01745329252,   -0.13962634016,100019.9966430664
20.25,       -1.23773706,        0.92339114,-9.725076899999999,     -0.0872664626,     0.03490658504,    -0.13962634016, 100017.9977416992
20.31,       -1.10021072,        0.89392121,-9.646490419999999,     -0.0872664626,      0.0872664626,    -0.12217304764, 100012.0010375977
20.38,      -1.12968065,         0.982331,      -9.58755056,   -0.03490658504,     0.0872664626,   -0.13962634016,100016.9982910156
20.45,      -1.10021072,       0.92339114,      -9.61702049,   -0.03490658504,    0.06981317008,   -0.12217304764,100012.0010375977
20.51,       -0.95286107,        0.86445128,-9.558080629999999,                 0,     0.05235987756,     -0.0872664626, 100014.9993896484
20.58,       -0.86445128,        0.86445128,-9.469670839999999,     0.01745329252,     0.03490658504,    -0.06981317008, 100013.9999389648
20.65,        -0.982331,       0.89392121,       -9.5286107,                0,    0.03490658504,   -0.05235987756,100018.9971923828
20.72,       -1.07074079,        0.83498135,-9.754546830000001,     0.01745329252,                 0,    -0.06981317008, 100012.0010375977
20.79,      -0.95286107,       0.65816177,      -9.58755056,    0.01745329252,                0,   -0.06981317008,100014.9993896484
20.85,       -0.74657156,         0.6876317,-9.558080629999999,                 0,     0.03490658504,    -0.13962634016, 100013.9999389648
20.92,       -0.83498135,        0.80551142,-9.646490419999999,                 0,     0.01745329252,     -0.1745329252, 100013.9999389648
20.99,      -0.89392121,       0.56975198,      -9.78401676,    0.01745329252,    0.01745329252,    -0.1745329252,100017.9977416992
21.05,       -0.86445128,        0.56975198,-9.725076899999999,     0.01745329252,     0.01745329252,    -0.19198621772,  100015.998840332
21.12,       -0.95286107,        0.71710163,-9.725076899999999,     0.03490658504,                 0,    -0.20943951024, 100011.0015869141
21.18,       -1.07074079,        0.86445128,-9.646490419999999,     0.03490658504,                 0,    -0.19198621772, 100012.0010375977
21.26,        -1.1787972,        1.10021072,-9.558080629999999,     0.06981317008,                 0,    -0.15707963268, 100013.9999389648
21.33,      -1.20826713,       1.12968065,       -9.5286107,    0.10471975512,    0.01745329252,   -0.19198621772,100012.0010375977
21.37,       -1.20826713,        1.14932727,-9.558080629999999,     0.06981317008,     0.05235987756,    -0.24434609528, 100013.9999389648
21.45,       -1.1787972,        1.1787972,      -9.69560697,    0.05235987756,    0.03490658504,    -0.2617993878,100017.9977416992
21.51,     -1.12968065,      1.12968065,     -9.81348669,   0.03490658504,   0.03490658504,  -0.29670597284,100015.998840332
21.58,       -1.1787972,       1.01180093,      -9.99030627,                0,    0.01745329252,   -0.33161255788,100013.9999389648
21.65,      -1.41455664,       0.89392121,     -10.04924613,   -0.05235987756,                0,   -0.38397243544,100017.9977416992
21.72,      -1.62084615,       0.89392121,      -9.96083634,   -0.06981317008,   -0.03490658504,     -0.436332313,100017.9977416992
21.78,      -1.56190629,       0.89392121,      -9.87242655,   -0.12217304764,   -0.03490658504,   -0.40142572796,100014.9993896484
21.86,        -1.4734965,        1.10021072,-9.725076899999999,    -0.10471975512,                 0,    -0.38397243544, 100012.0010375977
21.92,       -1.50296643,        1.14932727,-9.666137040000001,    -0.06981317008,     0.03490658504,    -0.40142572796, 100018.9971923828
21.99,      -1.32614685,       1.04127086,      -9.78401676,   -0.05235987756,    0.06981317008,    -0.3490658504,100016.9982910156
22.06,      -1.14932727,       0.89392121,      -9.69560697,   -0.03490658504,     0.0872664626,    -0.3490658504,100012.0010375977
22.12,       -1.29667692,          0.982331,-9.754546830000001,    -0.03490658504,     0.05235987756,    -0.41887902048, 100013.9999389648
22.2,      -1.26720699,       0.83498135,      -9.78401676,   -0.01745329252,   -0.01745329252,   -0.48869219056,100010.0021362305
22.27,      -1.04127086,       0.37328578,      -9.78401676,    -0.0872664626,    -0.0872664626,   -0.48869219056,100013.9999389648
22.31,      -1.01180093,       0.28487599,      -9.81348669,   -0.19198621772,    -0.0872664626,   -0.41887902048,100014.9993896484
22.38,      -0.86445128,       0.71710163,      -9.58755056,   -0.19198621772,                0,   -0.38397243544,100014.9993896484
22.45,      -0.65816177,       0.92339114,      -9.58755056,   -0.13962634016,                0,   -0.36651914292,100016.9982910156
22.52,     -0.71710163,      0.89392121,     -9.61702049,  -0.01745329252,               0,   -0.3490658504,100015.998840332
22.58,      -0.71710163,       0.92339114,      -9.44020091,    0.01745329252,                0,   -0.38397243544,100018.9971923828
22.65,        -0.6876317,        0.71710163,-9.558080629999999,     0.03490658504,                 0,    -0.33161255788,  100015.998840332
22.72,       -0.92339114,        0.43222564,-9.725076899999999,     0.03490658504,    -0.03490658504,     -0.2617993878, 100013.0004882812
22.79,       -1.01180093,        0.37328578,-9.381261050000001,     0.03490658504,                 0,    -0.24434609528,  100015.998840332
22.86,      -0.92339114,       0.52063543,       -9.2339114,    0.03490658504,    0.03490658504,   -0.24434609528,100014.9993896484
22.92,      -0.86445128,       0.59922191,      -9.32232119,     0.0872664626,                0,   -0.22689280276,100016.9982910156
22.97,       -0.74657156,        0.37328578,-9.646490419999999,      0.0872664626,    -0.03490658504,    -0.20943951024, 100011.0015869141
23.05,       -0.46169557,        0.46169557,-9.646490419999999,      0.0872664626,    -0.03490658504,     -0.1745329252, 100016.9982910156
23.11,       -0.4911655,       0.56975198,      -9.61702049,    0.12217304764,   -0.01745329252,   -0.15707963268,100013.9999389648
23.19,       -0.52063543,        0.59922191,-9.754546830000001,     0.13962634016,    -0.05235987756,    -0.13962634016, 100013.9999389648
23.23,       -0.62869184,        0.43222564,-9.842956620000001,     0.20943951024,    -0.13962634016,    -0.12217304764, 100016.9982910156
23.3,      -1.01180093,       0.25540606,     -10.07871606,    0.22689280276,   -0.13962634016,   -0.06981317008,100013.9999389648
23.36,        -0.982331,        0.1964662,     -10.07871606,    0.15707963268,   -0.06981317008,                0,100009.0026855469
23.43,      -1.01180093,       0.16699627,      -9.96083634,     0.0872664626,                0,    0.05235987756,100019.9966430664
23.51,      -1.01180093,       0.31434592,      -9.99030627,    0.01745329252,    0.01745329252,    0.10471975512,100018.9971923828
23.57,      -1.04127086,       0.31434592,     -10.07871606,    0.03490658504,                0,    0.13962634016,100014.9993896484
23.65,      -0.95286107,        0.1964662,      -9.90189648,    0.05235987756,                0,     0.1745329252,100014.9993896484
23.71,      -0.95286107,       0.31434592,      -9.78401676,    0.06981317008,    0.01745329252,     0.1745329252,100013.0004882812
23.78,       -1.12968065,        0.43222564,-9.931366410000001,      0.0872664626,                 0,     0.12217304764, 100021.0037231445
23.83,      -0.92339114,       0.07858648,     -10.04924613,    0.12217304764,   -0.01745329252,    0.15707963268,100023.0026245117
23.89,      -0.83498135,       -0.1964662,      -9.81348669,    0.12217304764,                0,    0.22689280276,100011.0015869141
23.97,      -1.04127086,                0,      -9.78401676,    0.01745329252,   -0.03490658504,    0.31415926536,100022.0031738281
24.03,       -1.10021072,        0.10805641,-9.646490419999999,     0.01745329252,    -0.06981317008,     0.27925268032, 100021.0037231445
24.1,      -1.07074079,      -0.07858648,      -9.58755056,                0,   -0.05235987756,    0.29670597284,100013.0004882812
24.17,      -1.20826713,       0.16699627,       -9.5286107,   -0.05235987756,   -0.10471975512,    0.38397243544,100013.0004882812
24.22,      -1.41455664,       0.34381585,      -9.49914077,   -0.03490658504,    -0.1745329252,    0.40142572796,100016.9982910156
24.28,       -1.4734965,        0.1964662,      -9.49914077,    0.03490658504,   -0.15707963268,    0.47123889804,100014.9993896484
24.35,       -1.50296643,        0.13752634,-9.646490419999999,     0.12217304764,    -0.12217304764,      0.5235987756, 100010.0021362305
24.42,       -1.65031608,        0.31434592,-9.558080629999999,     0.13962634016,    -0.03490658504,     0.48869219056, 100013.9999389648
24.49,       -1.75837249,        0.01964662,-9.842956620000001,     0.15707963268,                 0,     0.54105206812, 100014.9993896484
24.56,     -1.69943263,      0.04911655,     -9.87242655,   0.12217304764,   0.06981317008,   0.54105206812,100015.998840332
24.63,        -1.4734965,        0.34381585,-9.754546830000001,     0.13962634016,     0.03490658504,     0.45378560552, 100014.9993896484
24.69,      -1.44402657,       0.22593613,     -10.07871606,    0.13962634016,   -0.03490658504,    0.40142572796,100017.9977416992
24.77,     -1.67978601,      0.07858648,     -9.96083634,    0.0872664626,   -0.0872664626,   0.41887902048,100015.998840332
24.83,      -1.56190629,       0.10805641,      -9.81348669,    0.05235987756,   -0.05235987756,      0.436332313,100014.9993896484
24.9,       -1.50296643,        0.01964662,-9.931366410000001,     0.10471975512,                 0,     0.45378560552, 100014.9993896484
24.98,      -1.35561678,       0.13752634,      -10.0197762,    0.13962634016,    0.06981317008,      0.436332313,100017.9977416992
25.04,      -1.32614685,       0.13752634,     -10.13765592,    0.10471975512,    0.12217304764,    0.36651914292,100012.0010375977
25.1,      -1.14932727,                0,     -10.19659578,    0.03490658504,    0.13962634016,    0.31415926536,100014.9993896484
25.17,      -0.92339114,       0.10805641,      -10.0197762,                0,    0.13962634016,    0.27925268032,100016.9982910156
25.24,      -1.01180093,       0.28487599,     -10.10818599,                0,    0.10471975512,     0.2617993878,100013.0004882812
25.31,      -1.12968065,       0.28487599,     -10.10818599,   -0.01745329252,     0.0872664626,     0.2617993878,100016.9982910156
25.38,       -0.86445128,        0.37328578,-9.666137040000001,                 0,      0.0872664626,      0.2617993878, 100013.9999389648
25.45,       -0.77604149,        0.37328578,-9.646490419999999,      0.0872664626,     0.12217304764,     0.27925268032,  100015.998840332
25.51,       -0.83498135,         0.1964662,-9.725076899999999,     0.10471975512,     0.15707963268,     0.31415926536, 100017.9977416992
25.58,      -0.71710163,       0.16699627,      -9.69560697,    0.12217304764,     0.1745329252,     0.3490658504,100016.9982910156
25.65,      -0.74657156,                0,      -9.87242655,    0.12217304764,    0.15707963268,     0.3490658504,100011.0015869141
25.72,     -0.74657156,      0.07858648,     -9.87242655,    0.0872664626,    0.1745329252,   0.33161255788,100015.998840332
25.77,       -0.59922191,        0.16699627,-9.754546830000001,     0.03490658504,     0.13962634016,     0.33161255788, 100016.9982910156
25.84,       -0.52063543,        0.13752634,-9.725076899999999,      0.0872664626,     0.06981317008,     0.36651914292, 100013.9999389648
25.9,     -0.62869184,      0.28487599,     -9.69560697,    0.0872664626,   0.06981317008,    0.3490658504,100015.998840332
25.97,     -0.77604149,      0.16699627,     -9.87242655,   0.06981317008,   0.06981317008,   0.36651914292,100015.998840332
26.04,      -0.65816177,       0.22593613,      -9.78401676,    0.05235987756,     0.0872664626,      0.436332313,100019.9966430664
26.11,     -0.56975198,               0,     -9.78401676,   0.12217304764,   0.03490658504,   0.41887902048,100015.998840332
26.17,      -0.59922191,      -0.10805641,      -9.69560697,    0.12217304764,    0.10471975512,    0.36651914292,100016.9982910156
26.25,       -0.55010536,       -0.07858648,-9.666137040000001,     0.05235987756,      0.1745329252,      0.3490658504, 100017.9977416992
26.31,      -0.34381585,      -0.10805641,      -9.87242655,    0.03490658504,    0.10471975512,    0.31415926536,100017.9977416992
26.38,       -0.25540606,        0.10805641,-9.666137040000001,     0.05235987756,     0.06981317008,     0.22689280276, 100014.9993896484
26.45,      -0.22593613,                0,      -9.61702049,    0.03490658504,    0.03490658504,    0.15707963268,100011.0015869141
26.52,        -0.1964662,       -0.22593613,-9.754546830000001,     0.05235987756,                 0,     0.01745329252, 100013.9999389648
26.59,       -0.56975198,       -0.25540606,-9.931366410000001,                 0,                 0,     -0.0872664626, 100018.9971923828
26.65,      -0.34381585,      -0.34381585,      -9.87242655,   -0.06981317008,    0.01745329252,    -0.1745329252,100012.0010375977
26.73,       -0.22593613,       -0.34381585,-9.754546830000001,    -0.10471975512,                 0,    -0.22689280276,  100015.998840332
26.8,       -0.37328578,       -0.25540606,-9.842956620000001,     -0.1745329252,    -0.01745329252,    -0.27925268032,  100015.998840332
26.87,       -0.28487599,       -0.22593613,-9.666137040000001,     -0.1745329252,    -0.05235987756,    -0.31415926536, 100014.9993896484
26.93,       -0.28487599,       -0.25540606,-9.558080629999999,    -0.12217304764,    -0.06981317008,     -0.3490658504, 100014.9993896484
27,       -0.37328578,        -0.1964662,-9.558080629999999,     -0.0872664626,    -0.10471975512,      -0.436332313, 100016.9982910156
27.06,       -0.46169557,       -0.31434592,-9.646490419999999,     -0.0872664626,    -0.10471975512,    -0.40142572796, 100013.0004882812
27.13,        -0.4911655,       -0.40275571,-9.754546830000001,    -0.12217304764,    -0.10471975512,    -0.38397243544, 100016.9982910156
27.19,      -0.52063543,      -0.40275571,      -9.78401676,    -0.0872664626,    -0.0872664626,   -0.40142572796,100017.9977416992
27.26,       -0.56975198,       -0.31434592,-9.725076899999999,    -0.10471975512,    -0.05235987756,    -0.40142572796, 100013.0004882812
27.32,       -0.65816177,       -0.04911655,-9.842956620000001,    -0.10471975512,    -0.05235987756,      -0.436332313, 100017.9977416992
27.39,      -0.62869184,      -0.25540606,      -9.90189648,   -0.06981317008,   -0.06981317008,   -0.41887902048,100013.9999389648
27.46,      -0.74657156,      -0.22593613,      -9.78401676,   -0.05235987756,   -0.01745329252,   -0.41887902048,100014.9993896484
27.53,       -0.74657156,       -0.16699627,-9.725076899999999,    -0.06981317008,                 0,    -0.41887902048, 100016.9982910156
27.59,       -0.55010536,       -0.28487599,-9.754546830000001,    -0.03490658504,    -0.01745329252,      -0.436332313, 100024.0020751953
27.65,        -0.6876317,       -0.16699627,-9.754546830000001,    -0.03490658504,    -0.05235987756,    -0.47123889804, 100019.9966430664
27.71,      -0.95286107,      -0.04911655,      -9.81348669,   -0.06981317008,   -0.05235987756,   -0.50614548308,100012.0010375977
27.78,       -0.80551142,        -0.1964662,-9.842956620000001,    -0.03490658504,    -0.05235987756,    -0.50614548308, 100011.0015869141
27.85,      -0.92339114,      -0.10805641,      -9.87242655,   -0.01745329252,   -0.03490658504,   -0.47123889804,100019.9966430664
27.92,        -0.982331,       0.04911655,      -9.81348669,   -0.05235987756,                0,   -0.45378560552,100019.9966430664
27.99,        -0.982331,                0,      -9.81348669,   -0.03490658504,                0,   -0.47123889804,100013.0004882812
28.06,         -0.982331,       -0.01964662,-9.754546830000001,    -0.03490658504,     0.01745329252,    -0.47123889804, 100013.9999389648
28.12,      -0.95286107,        0.1964662,      -9.81348669,   -0.01745329252,    0.01745329252,   -0.50614548308,100018.9971923828
28.19,         -0.982331,        0.01964662,-9.842956620000001,    -0.01745329252,     0.01745329252,    -0.48869219056,  100015.998840332
28.26,       -0.92339114,        0.01964662,-9.754546830000001,    -0.03490658504,     0.05235987756,    -0.48869219056, 100014.9993896484
28.32,       -0.86445128,        0.22593613,-9.666137040000001,    -0.01745329252,                 0,     -0.5235987756, 100014.9993896484
28.39,       -0.89392121,        0.16699627,-9.725076899999999,    -0.05235987756,    -0.01745329252,    -0.50614548308, 100019.9966430664
28.46,       -0.95286107,        0.04911655,-9.754546830000001,     -0.0872664626,                 0,    -0.47123889804, 100011.0015869141
28.53,       -1.04127086,        0.37328578,-9.754546830000001,    -0.15707963268,    -0.01745329252,    -0.47123889804, 100013.0004882812
28.6,       -1.14932727,        0.43222564,-9.754546830000001,    -0.13962634016,    -0.05235987756,     -0.5235987756, 100012.0010375977
28.67,        -0.982331,        0.4911655,      -9.61702049,   -0.13962634016,   -0.01745329252,   -0.59341194568,100012.0010375977
28.74,       -0.83498135,        0.28487599,-9.646490419999999,    -0.12217304764,     0.01745329252,    -0.54105206812, 100011.0015869141
28.81,       -0.86445128,        0.40275571,-9.754546830000001,    -0.12217304764,     0.01745329252,    -0.47123889804, 100013.0004882812
28.87,       -0.92339114,        0.55010536,-9.754546830000001,    -0.10471975512,                 0,    -0.47123889804, 100017.9977416992
28.95,      -0.83498135,       0.37328578,      -9.78401676,   -0.10471975512,                0,   -0.48869219056,100016.9982910156
29,       -0.92339114,        0.22593613,-9.842956620000001,    -0.10471975512,                 0,      -0.436332313, 100016.9982910156
29.06,       -0.86445128,        0.34381585,-9.931366410000001,    -0.12217304764,                 0,      -0.436332313, 100019.9966430664
29.13,      -0.77604149,       0.34381585,      -9.90189648,   -0.05235987756,    0.01745329252,   -0.40142572796,100010.0021362305
29.2,       -0.77604149,        0.43222564,-9.725076899999999,    -0.06981317008,     0.05235987756,    -0.38397243544, 100019.9966430664
29.27,       -0.86445128,        0.56975198,-9.842956620000001,    -0.05235987756,     0.06981317008,    -0.38397243544, 100018.9971923828
29.33,       -0.6876317,       0.56975198,      -9.81348669,                0,     0.0872664626,   -0.40142572796,100014.9993896484
29.41,      -0.59922191,       0.34381585,      -9.78401676,                0,     0.0872664626,   -0.36651914292,100014.9993896484
29.47,      -0.71710163,       0.40275571,      -9.87242655,   -0.05235987756,                0,   -0.36651914292,100016.9982910156
29.55,      -0.83498135,       0.37328578,      -10.0197762,   -0.06981317008,   -0.03490658504,   -0.31415926536,100013.0004882812
29.61,      -0.92339114,       0.37328578,      -9.78401676,   -0.10471975512,   -0.03490658504,   -0.33161255788,100018.9971923828
29.68,       -0.95286107,        0.52063543,-9.725076899999999,     -0.0872664626,     0.03490658504,    -0.36651914292, 100023.0026245117
29.73,      -0.77604149,       0.56975198,      -9.78401676,   -0.06981317008,    0.06981317008,   -0.38397243544,100024.0020751953
29.8,       -0.56975198,        0.55010536,-9.842956620000001,    -0.05235987756,     0.06981317008,    -0.40142572796, 100019.9966430664
29.86,       -0.4911655,        0.4911655,      -9.90189648,   -0.05235987756,    0.06981317008,   -0.38397243544,100013.9999389648
29.93,       -0.4911655,       0.55010536,      -9.90189648,   -0.03490658504,    0.03490658504,   -0.36651914292,100013.0004882812
29.99,        -0.4911655,         0.4911655,-9.931366410000001,    -0.03490658504,     0.05235987756,    -0.29670597284, 100018.9971923828
30.05,      -0.55010536,       0.55010536,      -9.69560697,   -0.03490658504,    0.05235987756,   -0.24434609528,100016.9982910156
30.12,       -0.59922191,        0.80551142,-9.666137040000001,    -0.05235987756,     0.10471975512,    -0.22689280276,  100015.998840332
30.19,       -0.55010536,        0.74657156,-9.754546830000001,                 0,     0.06981317008,    -0.20943951024, 100016.9982910156
30.23,      -0.59922191,       0.77604149,      -9.69560697,    0.01745329252,     0.0872664626,   -0.24434609528,100019.9966430664
30.3,      -0.56975198,       0.71710163,      -9.78401676,    0.03490658504,     0.0872664626,   -0.20943951024,100010.0021362305
30.37,      -0.52063543,       0.59922191,      -9.90189648,                0,    0.06981317008,    -0.1745329252,100012.0010375977
30.44,       -0.46169557,         0.6876317,-9.754546830000001,    -0.03490658504,     0.03490658504,    -0.12217304764, 100013.9999389648
30.51,      -0.56975198,       0.89392121,      -9.69560697,   -0.05235987756,    0.01745329252,   -0.12217304764,100016.9982910156
30.57,      -0.56975198,       0.80551142,      -9.78401676,   -0.10471975512,    0.01745329252,   -0.10471975512,100014.9993896484
30.65,       -0.4911655,       0.89392121,      -9.58755056,   -0.12217304764,    0.01745329252,    -0.0872664626,100021.0037231445
30.71,      -0.55010536,         0.982331,      -9.58755056,   -0.15707963268,                0,    -0.0872664626,100013.9999389648
30.78,      -0.52063543,         0.982331,      -9.78401676,   -0.13962634016,                0,                0,100013.9999389648
30.86,      -0.37328578,       0.86445128,      -9.78401676,   -0.01745329252,    0.03490658504,    0.12217304764,100018.9971923828
30.9,       -0.34381585,        0.92339114,-9.842956620000001,                 0,     0.01745329252,     0.24434609528, 100026.0009765625
30.97,     -0.31434592,        0.982331,     -9.69560697,   0.01745329252,   0.03490658504,    0.3490658504,100015.998840332
31.03,      -0.40275571,       0.92339114,      -9.69560697,    0.03490658504,    0.01745329252,    0.41887902048,100017.9977416992
31.11,       -0.37328578,        0.86445128,-9.646490419999999,     0.06981317008,     0.06981317008,     0.40142572796,  100015.998840332
31.15,      -0.25540606,       0.86445128,      -9.81348669,    0.06981317008,    0.10471975512,    0.45378560552,100017.9977416992
31.22,      -0.22593613,        0.6876317,      -9.99030627,    0.03490658504,    0.05235987756,    0.48869219056,100016.9982910156
31.28,       -0.13752634,        0.83498135,-9.725076899999999,     0.01745329252,     0.01745329252,     0.48869219056, 100016.9982910156
31.35,      -0.16699627,       0.86445128,      -9.81348669,    0.03490658504,                0,    0.50614548308,100016.9982910156
31.42,      -0.01964662,       0.65816177,      -9.78401676,    0.06981317008,   -0.01745329252,     0.5235987756,100014.9993896484
31.49,       -0.10805641,        0.74657156,-9.558080629999999,     0.06981317008,                 0,     0.50614548308, 100013.0004882812
31.55,       -0.13752634,        0.74657156,-9.646490419999999,      0.0872664626,                 0,      0.5235987756, 100014.9993896484
31.63,       -0.10805641,        0.56975198,-9.842956620000001,     0.10471975512,    -0.03490658504,0.5759586531600001, 100013.9999389648
31.69,      -0.10805641,       0.55010536,      -9.78401676,    0.13962634016,   -0.03490658504,    0.62831853072,100013.0004882812
31.76,        -0.1964662,        0.59922191,-9.842956620000001,     0.13962634016,    -0.06981317008,     0.64577182324, 100018.9971923828
31.83,       -0.22593613,        0.40275571,-9.666137040000001,     0.20943951024,    -0.05235987756,      0.6108652382, 100013.9999389648
31.9,       -0.28487599,        0.40275571,-9.558080629999999,      0.1745329252,                 0,     0.62831853072, 100013.0004882812
31.96,       -0.04911655,        0.31434592,-9.666137040000001,      0.1745329252,                 0,     0.62831853072, 100011.0015869141
32.02,      -0.10805641,       0.07858648,      -9.81348669,    0.22689280276,   -0.03490658504,    0.55850536064,100013.9999389648
32.08,     -0.40275571,      0.22593613,     -9.78401676,   0.19198621772,               0,   0.50614548308,100015.998840332
32.15,       -0.13752634,        0.07858648,-9.931366410000001,     0.13962634016,                 0,     0.50614548308, 100018.9971923828
32.22,      -0.13752634,      -0.22593613,     -10.04924613,    0.15707963268,   -0.03490658504,    0.47123889804,100019.9966430664
32.29,      -0.34381585,       0.07858648,      -9.99030627,    0.10471975512,   -0.01745329252,      0.436332313,100008.0032348633
32.35,      -0.31434592,       0.10805641,      -9.99030627,    0.05235987756,   -0.01745329252,    0.40142572796,100016.9982910156
32.42,      -0.22593613,       0.04911655,      -9.99030627,    0.05235987756,   -0.05235987756,    0.40142572796,100016.9982910156
32.5,       -0.37328578,         0.1964662,-9.931366410000001,     0.01745329252,    -0.06981317008,     0.45378560552,  100015.998840332
32.56,     -0.34381585,      0.25540606,     -9.81348669,   0.03490658504,  -0.06981317008,   0.47123889804,100015.998840332
32.63,      -0.34381585,       0.13752634,      -9.87242655,    0.06981317008,   -0.05235987756,    0.47123889804,100013.0004882812
32.69,       -0.55010536,        0.25540606,-9.842956620000001,      0.0872664626,    -0.01745329252,     0.45378560552, 100013.9999389648
32.75,      -0.59922191,       0.25540606,      -9.87242655,     0.0872664626,   -0.01745329252,    0.41887902048,100018.9971923828
32.81,       -0.52063543,        0.07858648,-9.842956620000001,     0.12217304764,    -0.01745329252,     0.40142572796, 100013.9999389648
32.88,       -0.6876317,       0.04911655,      -9.78401676,    0.06981317008,    0.01745329252,    0.41887902048,100010.0021362305
32.92,      -0.62869184,       0.04911655,      -9.87242655,    0.03490658504,                0,      0.436332313,100016.9982910156
32.98,       -0.56975198,       -0.04911655,-9.842956620000001,     0.03490658504,                 0,       0.436332313, 100013.0004882812
33.04,      -0.62869184,        0.1964662,      -9.81348669,                0,    0.01745329252,    0.45378560552,100021.0037231445
33.11,       -0.56975198,         0.1964662,-9.931366410000001,    -0.01745329252,     0.05235987756,       0.436332313, 100014.9993896484
33.18,      -0.55010536,       0.07858648,      -9.99030627,                0,    0.03490658504,    0.41887902048,100017.9977416992
33.25,      -0.43222564,       0.16699627,      -9.99030627,    0.01745329252,    0.01745329252,    0.40142572796,100018.9971923828
33.32,      -0.31434592,       0.07858648,      -9.87242655,    0.01745329252,    0.03490658504,    0.40142572796,100011.0015869141
33.38,      -0.46169557,       0.10805641,      -9.87242655,    0.03490658504,    0.03490658504,    0.36651914292,100018.9971923828
33.45,      -0.56975198,       0.04911655,      -9.96083634,    0.03490658504,    0.05235987756,    0.33161255788,100013.0004882812
33.53,       -0.40275571,       -0.07858648,-9.725076899999999,     0.03490658504,      0.0872664626,     0.36651914292,  100015.998840332
33.57,       -0.31434592,       -0.10805641,-9.666137040000001,                 0,     0.13962634016,     0.41887902048, 100011.0015869141
33.63,       -0.28487599,       -0.13752634,-9.666137040000001,                 0,     0.06981317008,     0.40142572796,  100015.998840332
33.69,       -0.46169557,                 0,-9.666137040000001,     0.03490658504,     0.05235987756,     0.29670597284, 100010.0021362305
33.75,      -0.40275571,      -0.04911655,       -9.5286107,     0.0872664626,    0.06981317008,    0.20943951024,100016.9982910156
33.82,       -0.37328578,       -0.13752634,-9.842956620000001,      0.1745329252,     0.05235987756,     0.03490658504, 100022.0031738281
33.89,      -0.46169557,      -0.13752634,      -9.96083634,    0.05235987756,    0.01745329252,   -0.01745329252,100013.9999389648
33.96,       0.01964662,      -0.62869184,      -9.78401676,    0.03490658504,                0,   -0.15707963268,100014.9993896484
34.01,       -0.28487599,        -0.6876317,-9.842956620000001,    -0.03490658504,     0.05235987756,     -0.1745329252,  100015.998840332
34.07,      -0.28487599,      -0.40275571,      -9.87242655,                0,    0.03490658504,   -0.27925268032,100017.9977416992
34.12,       0.31434592,      -0.56975198,       -9.5286107,    -0.0872664626,                0,    -0.3490658504,100013.0004882812
34.19,       0.22593613,      -0.43222564,     -10.07871606,   -0.15707963268,   -0.03490658504,   -0.24434609528,100011.0015869141
34.26,      -0.01964662,      -0.55010536,     -10.94316734,   -0.01745329252,    -0.2617993878,   -0.24434609528,100019.9966430664
34.33,                 0,       -0.62869184,-9.646490419999999,    -0.12217304764,     -0.1745329252,     -0.1745329252, 100013.9999389648
34.39,       -0.43222564,        0.25540606,-9.204441470000001,    -0.01745329252,     0.03490658504,    -0.19198621772, 100013.9999389648
34.45,       -0.4911655,      -0.43222564,     -10.33412212,    0.13962634016,    0.10471975512,     -0.436332313,100019.9966430664
34.51,      0.46169557,     -0.56975198,     -8.68380604,  -0.15707963268,   0.10471975512,  -0.29670597284,100015.998840332
34.58,      -1.04127086,      -0.16699627,     -11.40486291,                0,   -0.13962634016,     -0.436332313,100014.9993896484
34.66,      -0.56975198,      -0.86445128,      -10.0197762,   -0.20943951024,                0,   -0.29670597284,100012.0010375977
34.72,       0.83498135,       0.25540606,      -8.94903541,   -0.12217304764,    0.12217304764,    -0.2617993878,100017.9977416992
34.79,        -0.982331,       0.40275571,     -10.36359205,    0.10471975512,   -0.05235987756,   -0.55850536064,100014.9993896484
34.86,       1.04127086,      -0.22593613,      -7.81935476,   -0.38397243544,    0.03490658504,   -0.36651914292,100017.9977416992
34.92,      -1.01180093,                0,     -11.75850207,    -0.1745329252,    -0.3490658504,   -0.33161255788,100012.0010375977
35,      -0.37328578,       1.04127086,      -8.71327597,    0.27925268032,   -0.22689280276,   -0.76794487088,100013.0004882812
35.07,      -1.20826713,      -2.33794778,     -10.79581769,   -0.66322511576,    0.06981317008,   -0.40142572796,100013.9999389648
35.12,      -1.01180093,       1.62084615,     -10.27518226,    -0.0872664626,    -0.1745329252,   -0.41887902048,100014.9993896484
35.19,        0.86445128,        0.07858648,-8.398930050000001,     -0.2617993878,     0.05235987756,    -0.54105206812, 100019.9966430664
35.25,       -0.37328578,       -0.13752634,-9.469670839999999,    -0.41887902048,    -0.01745329252,    -0.06981317008, 100013.0004882812
35.33,       -1.07074079,        2.60317715,      -10.13765592,0.5759586531600001,    -0.31415926536,    -0.59341194568, 100014.9993896484
35.39,      -0.37328578,      -0.80551142,       -9.2339114,   -0.15707963268,                0,   -0.68067840828,100010.0021362305
35.44,      -1.12968065,       0.89392121,      -9.58755056,   -0.12217304764,                0,   -0.19198621772,100014.9993896484
35.51,        -0.982331,       0.13752634,     -11.67009228,    0.20943951024,   -0.15707963268,   -0.38397243544,100013.0004882812
35.58,      0.13752634,      0.16699627,      -7.2692494,  -0.47123889804,   0.13962634016,   0.06981317008,100015.998840332
35.65,      -0.59922191,       1.90572214,     -11.35574636,    0.06981317008,    -0.1745329252,                0,100018.9971923828
35.72,      -1.87625221,       0.16699627,     -10.07871606,     0.3490658504,   -0.31415926536,    -0.5235987756,100017.9977416992
35.78,       0.46169557,       0.56975198,      -6.82720045,   -0.31415926536,    0.15707963268,   -0.19198621772,100018.9971923828
35.85,      -1.32614685,       0.65816177,     -12.62295335,     0.0872664626,   -0.03490658504,   -0.48869219056,100013.9999389648
35.91,       -1.26720699,       -0.46169557,-9.116031680000001,                 0,     0.05235987756,    -0.59341194568, 100018.9971923828
35.98,      -0.16699627,      -0.52063543,     -10.48147177,   -0.62831853072,    0.20943951024,                0,100019.9966430664
36.04,      -0.31434592,       2.69158694,      -9.35179112,    0.29670597284,   -0.15707963268,   -0.20943951024,100013.9999389648
36.12,      0.65816177,     -0.22593613,     -9.06691513,  -0.10471975512,    0.1745329252,  -0.33161255788,100015.998840332
36.18,      -2.54423729,       1.90572214,     -12.33807736,    0.03490658504,    0.15707963268,    -0.0872664626,100014.9993896484
36.26,         0.4911655,        1.84678228,-8.369460119999999,     0.24434609528,     0.29670597284,    -0.75049157836, 100017.9977416992
36.3,      -1.04127086,      -2.02360186,     -10.82528762,   -0.40142572796,    0.31415926536,   -0.24434609528,100016.9982910156
36.37,       0.40275571,       2.33794778,      -8.94903541,      0.436332313,    -0.0872664626,   -0.22689280276,100019.9966430664
36.42,      -0.04911655,      -1.29667692,      -9.35179112,   -0.20943951024,    -0.0872664626,   -0.29670597284,100014.9993896484
36.49,      -1.10021072,       1.01180093,     -10.22606571,   -0.29670597284,   -0.03490658504,    0.19198621772,100017.9977416992
36.53,       -0.982331,      1.90572214,     -9.26338133,    0.1745329252,   0.12217304764,  -0.36651914292,100015.998840332
36.6,       -1.01180093,       -0.92339114,-9.842956620000001,    -0.48869219056,     0.36651914292,    -0.13962634016, 100016.9982910156
36.67,       0.28487599,       3.49709836,      -8.68380604,    0.62831853072,     0.1745329252,   -0.27925268032,100023.0026245117
36.72,     -0.74657156,     -1.84678228,    -11.40486291,   0.06981317008,   0.10471975512,  -0.31415926536,100015.998840332
36.79,       1.50296643,        1.4734965,       -6.9745501,   -0.50614548308,    0.31415926536,    0.47123889804,100016.9982910156
36.86,      -1.23773706,       2.54423729,     -12.50507363,    0.80285145592,    0.01745329252,   -0.31415926536,100011.0015869141
36.93,       -1.32614685,       -1.56190629,-9.725076899999999,    -0.13962634016,     0.06981317008,    -0.31415926536, 100016.9982910156
36.99,        2.7505268,       1.14932727,      -5.11794451,   -0.54105206812,    0.24434609528,    0.33161255788,100023.0026245117
37.07,      -1.56190629,      -0.25540606,      -15.3243636,    0.55850536064,   -0.45378560552,    -0.0872664626,100019.9966430664
37.14,       -1.78784242,       -0.07858648,-8.831155689999999,    -0.10471975512,     -0.0872664626,    -0.05235987756, 100017.9977416992
37.21,        2.4558275,       1.59137622,      -4.68571887,    -0.7853981634,    0.71558499332,    0.29670597284,100011.0015869141
37.27,      -0.13752634,       0.86445128,     -15.49135987,   -0.13962634016,   -0.05235987756,    0.13962634016,100014.9993896484
37.35,      -1.14932727,       0.95286107,     -10.45200184,    0.12217304764,   -0.15707963268,    -0.0872664626,100022.0031738281
37.41,       2.39688764,        1.4734965,      -5.72698973,   -0.41887902048,    0.45378560552,    0.33161255788,100013.9999389648
37.48,      -0.37328578,       1.99413193,      -14.5384988,    0.31415926536,   -0.20943951024,     0.2617993878,100014.9993896484
37.55,      -3.58550815,      -2.08254172,     -13.08464892,    0.31415926536,   -0.45378560552,   -0.13962634016,100013.9999389648
37.62,       3.12381258,       2.91752307,       1.38508671,   -0.10471975512,    0.92502450356,    0.03490658504,100013.0004882812
37.68,      2.48529743,     -0.86445128,    -16.10040509,  -0.05235987756,  -0.06981317008,    0.2617993878,100015.998840332
37.75,      -3.18275244,      -2.08254172,     -15.90393889,    0.24434609528,   -1.27409035396,                0,100018.9971923828
37.82,       1.69943263,       3.30063216,      -0.77604149,    -0.1745329252,      0.436332313,   -0.15707963268,100022.0031738281
37.88,      -0.01964662,       1.59137622,     -10.27518226,   -0.29670597284,    0.33161255788,    0.05235987756,100010.0021362305
37.95,      -2.77999673,      -1.87625221,     -17.23008574,    0.33161255788,    -0.7853981634,    -0.2617993878,100014.9993896484
38.02,        1.4734965,       1.26720699,      -3.30063216,    0.05235987756,     0.3490658504,   -0.20943951024,100017.9977416992
38.09,        1.84678228,        0.25540606,-9.096385059999999,     -0.3490658504,     0.54105206812,     0.47123889804, 100021.0037231445
38.16,      -1.87625221,      -1.07074079,     -18.10436033,     0.0872664626,   -0.71558499332,    0.20943951024,100011.0015869141
38.23,       0.25540606,       1.78784242,      -5.06882796,     0.1745329252,     0.2617993878,    -0.2617993878,100009.0026855469
38.29,        2.36741771,        2.20042144,       -5.55999346,    -0.13962634016,0.8377580409600001,     0.13962634016, 100012.0010375977
38.35,     -0.80551142,     -1.50296643,    -18.16330019,               0,  -0.71558499332,               0,100015.998840332
38.42,      -1.23773706,      -0.37328578,      -9.69560697,     0.0872664626,   -0.64577182324,    -0.2617993878,100016.9982910156
38.48,        0.6876317,       2.33794778,      -2.97646293,   -0.19198621772,    0.59341194568,   -0.03490658504,100014.9993896484
38.56,       0.62869184,       1.10021072,     -12.88818272,    -0.2617993878,   -0.03490658504,    0.06981317008,100016.9982910156
38.6,      -2.22989137,      -1.04127086,     -13.64457759,     0.1745329252,   -0.68067840828,   -0.20943951024,100016.9982910156
38.67,       1.50296643,       2.11201165,      -1.72890256,   -0.12217304764,    0.68067840828,   -0.06981317008,100016.9982910156
38.73,       2.51476736,       1.65031608,      -7.98635103,   -0.36651914292,     0.5235987756,    0.48869219056,100017.9977416992
38.8,      -1.75837249,      -1.38508671,     -19.11616126,    0.10471975512,   -0.99483767364,    0.19198621772,100018.9971923828
38.87,      -1.12968065,        1.1787972,      -7.73094497,                0,   -0.20943951024,    0.12217304764,100016.9982910156
38.95,       0.95286107,        3.4381585,      -3.00593286,   -0.10471975512,    0.94247779608,    0.47123889804,100014.9993896484
38.99,      -0.52063543,       1.32614685,     -16.48351418,      0.436332313,   -0.13962634016,     0.1745329252,100016.9982910156
39.06,      -1.65031608,      -1.67978601,     -16.07093516,    0.13962634016,   -0.62831853072,   -0.03490658504,100013.0004882812
39.12,       1.99413193,       0.80551142,      -3.55603822,   -0.47123889804,    0.66322511576,    0.38397243544,100011.0015869141
39.18,       0.28487599,        2.7505268,     -12.65242328,    -0.0872664626,    0.38397243544,     0.5235987756,100014.9993896484
39.24,     -1.56190629,     -0.07858648,    -14.56796873,   0.38397243544,  -0.47123889804,  -0.06981317008,100015.998840332
39.31,       1.10021072,       0.07858648,      -5.38317388,   -0.33161255788,    0.29670597284,    0.15707963268,100016.9982910156
39.38,       2.27900792,       1.75837249,      -6.88614031,   -0.38397243544,    0.45378560552,    0.41887902048,100018.9971923828
39.45,     -1.04127086,      1.01180093,    -15.37348015,     0.436332313,  -0.68067840828,  -0.27925268032,100015.998840332
39.51,      -0.62869184,      -0.56975198,      -7.55412539,    -0.1745329252,   -0.15707963268,    -0.2617993878,100016.9982910156
39.56,       2.77999673,       3.33010209,      -2.17095151,    -0.0872664626,    0.76794487088,    0.03490658504,100019.9966430664
39.63,      0.28487599,       0.1964662,    -15.98252537,   0.24434609528,  -0.41887902048,   -0.0872664626,100015.998840332
39.7,      -2.20042144,      -2.08254172,     -14.33220929,    0.10471975512,    -0.6981317008,   -0.19198621772,100016.9982910156
39.76,       1.10021072,       2.33794778,      -1.84678228,   -0.10471975512,    0.73303828584,   -0.03490658504,100016.9982910156
39.81,        2.51476736,        3.82126759,-8.222110470000001,     0.38397243544,     0.48869219056,    -0.10471975512, 100021.0037231445
39.86,       -1.62084615,       -2.91752307,      -18.04542047,0.5759586531600001,    -0.85521133348,     -0.2617993878, 100019.9966430664
39.94,       -0.10805641,       -1.75837249,-8.192640539999999,     -0.2617993878,    -0.22689280276,     0.10471975512, 100018.9971923828
39.98,       1.01180093,       2.17095151,      -2.97646293,    -0.2617993878,    0.71558499332,    0.19198621772,100014.9993896484
40.05,       1.01180093,       2.17095151,      -2.97646293,    -0.2617993878,    0.71558499332,    0.19198621772,100014.9993896484
