time,accX,accY,accZ,wRoll,wPitch,wYaw,Pa
0.14,       -0.30452261,        0.37328578,-9.204441470000001,                 0,                 0,                 0, 100014.4119262695
0.15,       -0.26522937,        0.37328578,-9.489317460000001,                 0,                 0,                 0, 100014.4348144531
0.21,       -0.28487599,        0.37328578,-9.666137040000001,                 0,                 0,                 0, 100014.4424438477
0.27,      -0.26522937,        0.3929324,      -9.77419345,                0,   -0.03490658504,                0,100014.4500732422
0.31,      -0.28487599,       0.37328578,      -9.86260324,                0,   -0.06981317008,                0,100014.4958496094
0.38,     -0.28487599,      0.37328578,     -9.89207317,               0,   -0.0872664626,               0,100014.518737793
0.44,       -0.28487599,        0.38310909,-9.931366410000001,                 0,     -0.0872664626,                 0, 100014.5492553711
0.52,      -0.27505268,       0.34381585,      -9.97065965,                0,    -0.0872664626,                0,100014.5721435547
0.59,      -0.30452261,       0.36346247,      -9.98048296,                0,   -0.10471975512,                0,100014.6026611328
0.64,      -0.28487599,       0.38310909,      -9.98048296,                0,   -0.10471975512,                0,100014.6255493164
0.71,   -0.26522937,    0.37328578,  -10.00995289,             0, -0.0872664626,             0,100014.6484375
0.75,      -0.30452261,        0.3929324,      -9.98048296,                0,    -0.0872664626,   -0.01745329252,100014.6713256836
0.82,      -0.26522937,       0.38310909,      -9.99030627,                0,    -0.0872664626,                0,100014.6865844727
0.88,      -0.28487599,       0.36346247,      -9.97065965,                0,    -0.0872664626,                0,100014.7018432617
0.95,      -0.28487599,       0.37328578,     -10.00995289,                0,   -0.06981317008,                0,100014.7094726562
1.01,      -0.25540606,       0.37328578,      -9.98048296,    0.01745329252,   -0.06981317008,    0.01745329252,100014.7247314453
1.05,      -0.28487599,       0.38310909,      -9.98048296,                0,   -0.06981317008,   -0.01745329252,100014.7323608398
1.11,      -0.28487599,       0.36346247,     -10.00012958,    0.01745329252,   -0.05235987756,                0,100014.7552490234
1.18,      -0.27505268,       0.36346247,      -9.99030627,                0,   -0.01745329252,                0,100014.7552490234
1.23,      -0.26522937,       0.38310909,      -9.98048296,    0.01745329252,   -0.01745329252,                0,100014.7552490234
1.3,      -0.28487599,       0.38310909,     -10.00012958,                0,   -0.01745329252,                0,100014.7476196289
1.38,      -0.27505268,       0.35363916,      -9.99030627,                0,                0,                0,100014.7476196289
1.43,     -0.28487599,      0.38310909,    -10.00012958,   0.01745329252,               0,               0,100014.762878418
1.5,      -0.26522937,       0.37328578,      -9.99030627,    0.03490658504,                0,                0,100014.7476196289
1.57,      -0.26522937,       0.37328578,      -9.99030627,                0,                0,                0,100014.7323608398
1.65,      -0.27505268,       0.37328578,      -9.99030627,    0.01745329252,                0,                0,100014.7171020508
1.73,      -0.28487599,       0.36346247,      -9.99030627,    0.01745329252,    0.01745329252,                0,100014.7171020508
1.81,      -0.26522937,       0.35363916,     -10.00012958,    0.01745329252,    0.03490658504,                0,100014.7094726562
1.88,      -0.27505268,        0.3929324,     -10.00995289,    0.01745329252,    0.05235987756,    0.01745329252,100014.6942138672
1.97,      -0.28487599,        0.3929324,     -10.00995289,    0.01745329252,    0.05235987756,                0,100014.6865844727
2.03,      -0.28487599,       0.37328578,     -10.00995289,    0.01745329252,    0.05235987756,                0,100014.6713256836
2.1,   -0.27505268,    0.36346247,  -10.00995289, 0.03490658504, 0.06981317008,             0,100014.6484375
2.18,      -0.26522937,       0.36346247,      -10.0197762,                0,    0.06981317008,                0,100014.6179199219
2.27,      -0.25540606,       0.37328578,     -10.00995289,                0,    0.06981317008,    0.01745329252,100014.6102905273
2.36,      -0.27505268,       0.37328578,     -10.00012958,                0,    0.06981317008,                0,100014.5797729492
2.43,      -0.26522937,       0.37328578,     -10.00995289,    0.01745329252,     0.0872664626,                0,100014.5568847656
2.5,      -0.28487599,       0.36346247,     -10.00995289,                0,    0.06981317008,                0,100014.5263671875
2.59,      -0.28487599,       0.38310909,      -10.0197762,                0,    0.06981317008,                0,100014.4958496094
2.68,      -0.28487599,       0.37328578,     -10.00012958,                0,    0.06981317008,    0.01745329252,100014.4500732422
2.77,      -0.28487599,       0.38310909,     -10.03942282,                0,    0.05235987756,    0.01745329252,100014.4119262695
2.85,      -0.27505268,       0.35363916,      -10.0197762,   -0.01745329252,    0.03490658504,                0,100014.3890380859
2.93,      -0.27505268,       0.38310909,     -10.02959951,                0,    0.03490658504,                0,100014.3508911133
3,     -0.27505268,      0.37328578,    -10.02959951,  -0.01745329252,   0.06981317008,               0,100014.289855957
3.09,      -0.28487599,       0.38310909,     -10.02959951,   -0.01745329252,    0.06981317008,                0,100014.2593383789
3.17,      -0.28487599,       0.38310909,     -10.02959951,   -0.03490658504,    0.05235987756,    0.01745329252,100014.1983032227
3.26,      -0.27505268,       0.38310909,     -10.00012958,   -0.01745329252,    0.05235987756,                0,100014.1372680664
3.32,      -0.27505268,       0.35363916,      -10.0197762,                0,    0.05235987756,                0,100014.0838623047
3.38,       -0.2946993,       0.37328578,     -10.03942282,   -0.01745329252,    0.03490658504,                0,100014.0228271484
3.46,      -0.28487599,       0.37328578,     -10.04924613,   -0.01745329252,    0.05235987756,                0,100013.9617919922
3.55,      -0.28487599,       0.36346247,      -10.0197762,   -0.01745329252,    0.01745329252,                0,100013.8931274414
3.64,      -0.26522937,       0.36346247,     -10.02959951,   -0.01745329252,    0.01745329252,                0,100013.8244628906
3.73,      -0.26522937,       0.38310909,     -10.02959951,   -0.05235987756,    0.01745329252,    0.01745329252,100013.7710571289
3.81,       -0.2946993,       0.38310909,     -10.00995289,   -0.03490658504,    0.03490658504,    0.01745329252,100013.6871337891
3.89,      -0.27505268,       0.37328578,     -10.00995289,   -0.01745329252,    0.01745329252,                0,100013.6260986328
3.98,       -0.2946993,       0.38310909,      -10.0197762,   -0.01745329252,    0.01745329252,    0.01745329252,100013.5498046875
4.06,      -0.27505268,       0.36346247,     -10.02959951,   -0.03490658504,    0.01745329252,                0,100013.4735107422
4.15,      -0.28487599,       0.36346247,     -10.02959951,   -0.03490658504,                0,    0.01745329252,100013.3972167969
4.21,     -0.27505268,      0.38310909,    -10.00995289,  -0.01745329252,               0,               0,100013.313293457
4.27,      -0.28487599,       0.36346247,     -10.02959951,   -0.01745329252,                0,                0,100013.2293701172
4.33,      -0.27505268,       0.36346247,     -10.00012958,   -0.01745329252,                0,                0,100013.1454467773
4.41,      -0.28487599,       0.36346247,     -10.00012958,                0,   -0.01745329252,                0,100013.0767822266
4.47,       -0.2946993,       0.36346247,     -10.00012958,                0,   -0.01745329252,                0,100012.9776000977
4.53,      -0.30452261,       0.37328578,     -10.00012958,   -0.01745329252,   -0.01745329252,    0.01745329252,100012.8860473633
4.61,      -0.27505268,       0.37328578,      -9.98048296,                0,   -0.03490658504,    0.01745329252,100012.7868652344
4.69,   -0.28487599,    0.37328578,   -9.99030627,             0,-0.01745329252, 0.01745329252,100012.6953125
4.78,      -0.28487599,       0.36346247,      -9.99030627,                0,   -0.01745329252,                0,100012.6037597656
4.86,      -0.26522937,       0.36346247,      -9.98048296,                0,   -0.01745329252,    0.01745329252,100012.4969482422
4.94,      -0.27505268,       0.38310909,      -9.99030627,                0,   -0.01745329252,                0,100012.3977661133
5.03,      -0.28487599,       0.36346247,      -9.98048296,                0,   -0.03490658504,    0.03490658504,100012.2985839844
5.08,       -0.2946993,       0.37328578,     -10.00012958,                0,   -0.01745329252,                0,100012.1765136719
5.1,      -0.28487599,       0.37328578,      -9.99030627,                0,   -0.01745329252,                0,100012.0620727539
5.19,      -0.28487599,       0.36346247,      -9.99030627,    0.01745329252,   -0.01745329252,                0,100011.9705200195
5.27,     -0.28487599,      0.38310909,     -9.98048296,   0.03490658504,  -0.01745329252,               0,100011.833190918
5.37,       -0.2946993,       0.36346247,      -9.99030627,    0.03490658504,                0,    0.01745329252,100011.7111206055
5.43,       -0.2946993,       0.36346247,     -10.00012958,    0.03490658504,   -0.01745329252,                0,100011.5966796875
5.52,      -0.27505268,       0.36346247,     -10.00012958,    0.03490658504,   -0.01745329252,                0,100011.4593505859
5.57,      -0.28487599,       0.38310909,      -10.0197762,    0.01745329252,                0,                0,100011.3372802734
5.65,      -0.28487599,       0.35363916,      -9.99030627,    0.01745329252,                0,                0,100011.1999511719
5.74,      -0.28487599,       0.37328578,      -9.98048296,    0.01745329252,                0,    0.01745329252,100011.0855102539
5.81,      -0.27505268,       0.38310909,     -10.00012958,    0.01745329252,                0,                0,100010.9634399414
5.9,      -0.28487599,       0.38310909,      -9.99030627,    0.01745329252,                0,                0,100010.8261108398
5.98,      -0.28487599,       0.35363916,     -10.00012958,    0.01745329252,                0,                0,100010.6964111328
6.07,      -0.28487599,       0.37328578,      -9.97065965,    0.03490658504,    0.01745329252,    0.01745329252,100010.5667114258
6.16,      -0.28487599,       0.38310909,     -10.00012958,    0.01745329252,    0.03490658504,                0,100010.4217529297
6.25,      -0.28487599,       0.37328578,      -9.98048296,    0.01745329252,    0.03490658504,                0,100010.2844238281
6.33,     -0.26522937,      0.36346247,    -10.00995289,   0.01745329252,   0.01745329252,               0,100010.139465332
6.41,       -0.2946993,       0.37328578,      -9.99030627,    0.01745329252,    0.03490658504,    0.01745329252,100009.9945068359
6.47,      -0.28487599,       0.36346247,      -9.99030627,    0.01745329252,    0.03490658504,                0,100009.8419189453
6.55,      -0.28487599,       0.37328578,      -9.99030627,    0.03490658504,    0.05235987756,    0.01745329252,100009.6969604492
6.64,       -0.2946993,       0.37328578,     -10.00995289,    0.01745329252,    0.03490658504,    0.01745329252,100009.5367431641
6.73,     -0.27505268,       0.3929324,    -10.00012958,               0,   0.03490658504,               0,100009.391784668
6.8,      -0.26522937,       0.37328578,     -10.00012958,    0.01745329252,    0.03490658504,    0.01745329252,100009.2315673828
6.88,      -0.28487599,       0.37328578,     -10.00012958,                0,    0.05235987756,                0,100009.0713500977
6.95,      -0.2946993,      0.38310909,     -9.99030627,               0,   0.05235987756,   0.01745329252,100008.903503418
7.03,       -0.2946993,       0.37328578,     -10.00012958,                0,    0.03490658504,    0.01745329252,100008.7509155273
7.1,      -0.28487599,       0.36346247,      -9.99030627,   -0.01745329252,    0.05235987756,                0,100008.5678100586
7.18,      -0.26522937,       0.37328578,      -9.98048296,                0,    0.01745329252,    0.01745329252,100008.3999633789
7.22,      -0.27505268,       0.36346247,     -10.00012958,   -0.01745329252,    0.01745329252,                0,100008.2168579102
7.31,       -0.2946993,       0.35363916,     -10.00012958,   -0.01745329252,    0.01745329252,    0.01745329252,100008.0413818359
7.4,       -0.2946993,        0.3929324,      -9.99030627,   -0.05235987756,    0.01745329252,    0.01745329252,100007.8735351562
7.46,      -0.2946993,      0.36346247,     -9.99030627,  -0.03490658504,   0.01745329252,               0,100007.698059082
7.54,       -0.2946993,       0.38310909,      -9.99030627,   -0.03490658504,    0.01745329252,                0,100007.5225830078
7.64,      -0.27505268,        0.3929324,      -9.99030627,   -0.03490658504,    0.01745329252,    0.01745329252,100007.3547363281
7.7,      -0.28487599,       0.38310909,     -10.00012958,   -0.01745329252,    0.01745329252,    0.03490658504,100007.1792602539
7.79,      -0.27505268,       0.37328578,      -9.99030627,   -0.03490658504,                0,                0,100006.9808959961
7.87,      -0.27505268,       0.37328578,      -9.99030627,   -0.05235987756,    0.01745329252,    0.01745329252,100006.8054199219
7.95,      -0.27505268,       0.37328578,      -9.98048296,   -0.05235987756,                0,    0.01745329252,100006.5994262695
8.03,      -0.28487599,       0.37328578,      -9.99030627,   -0.05235987756,                0,                0,100006.4239501953
8.11,      -0.28487599,       0.35363916,      -9.97065965,   -0.03490658504,    0.01745329252,    0.01745329252,100006.2255859375
8.21,      -0.27505268,       0.38310909,      -9.99030627,   -0.05235987756,                0,                0,100006.0424804688
8.26,      -0.26522937,       0.38310909,      -9.98048296,   -0.03490658504,                0,                0,100005.8364868164
8.35,      -0.26522937,       0.37328578,      -9.98048296,   -0.03490658504,                0,                0,100005.6381225586
8.44,      -0.26522937,       0.37328578,      -9.99030627,                0,                0,    0.01745329252,100005.4397583008
8.51,      -0.28487599,       0.38310909,      -9.98048296,   -0.01745329252,   -0.01745329252,    0.01745329252,100005.2261352539
8.59,      -0.28487599,       0.36346247,      -9.98048296,                0,   -0.01745329252,                0,100005.0277709961
8.68,      -0.27505268,       0.36346247,      -9.98048296,                0,                0,                0,100004.8217773438
8.76,      -0.27505268,        0.3929324,      -9.98048296,                0,   -0.01745329252,                0,100004.6081542969
8.84,      -0.28487599,       0.38310909,      -9.98048296,                0,   -0.01745329252,   -0.01745329252,100004.4097900391
8.94,      -0.27505268,       0.37328578,      -9.97065965,                0,   -0.01745329252,                0,100004.1885375977
9,       -0.2946993,       0.36346247,      -9.98048296,                0,   -0.01745329252,    0.01745329252,100003.9749145508
9.08,      -0.27505268,       0.38310909,      -9.96083634,                0,                0,                0,100003.7612915039
9.16,      -0.27505268,       0.36346247,      -9.96083634,                0,                0,                0,100003.5400390625
9.22,      -0.27505268,       0.37328578,      -9.96083634,                0,                0,                0,100003.3111572266
9.3,      -0.28487599,       0.38310909,      -9.99030627,                0,                0,                0,100003.0975341797
9.36,      -0.28487599,       0.37328578,      -9.97065965,                0,                0,                0,100002.8610229492
9.44,      -0.26522937,       0.38310909,      -9.97065965,                0,                0,    0.01745329252,100002.6245117188
9.53,       -0.2946993,       0.36346247,      -9.96083634,                0,                0,                0,100002.3956298828
9.6,       -0.2946993,       0.36346247,      -9.98048296,                0,   -0.01745329252,                0,100002.1667480469
9.68,       -0.2946993,        0.3929324,      -9.96083634,    0.03490658504,   -0.01745329252,    0.01745329252,100001.9378662109
9.77,       -0.2946993,        0.3929324,      -9.96083634,    0.01745329252,   -0.01745329252,                0,100001.6937255859
9.85,      -0.27505268,       0.37328578,      -9.97065965,                0,   -0.01745329252,    0.01745329252,100001.4724731445
9.95,     -0.28487599,      0.37328578,     -9.96083634,               0,               0,               0,100001.220703125
10.03,      -0.27505268,       0.36346247,      -9.96083634,    0.01745329252,                0,    0.01745329252,100000.9841918945
10.1,      -0.28487599,       0.36346247,      -9.95101303,    0.01745329252,                0,                0,100000.7553100586
10.19,      -0.28487599,       0.37328578,      -9.96083634,    0.01745329252,                0,                0,100000.5187988281
10.24,      -0.28487599,       0.37328578,      -9.96083634,    0.03490658504,                0,                0,100000.2822875977
10.33,       -0.27505268,        0.37328578,-9.941189720000001,     0.01745329252,                 0,                 0, 100000.0305175781
10.38,       -0.28487599,        0.37328578,-9.941189720000001,                 0,                 0,     0.01745329252, 99999.77874755859
10.46,      -0.28487599,       0.36346247,      -9.95101303,                0,    0.01745329252,    0.01745329252,99999.54223632812
10.51,       -0.2946993,       0.36346247,      -9.96083634,                0,                0,    0.01745329252,99999.29046630859
10.6,      -0.27505268,       0.35363916,      -9.95101303,    0.01745329252,                0,    0.01745329252,99999.03869628906
10.67,       -0.2946993,       0.36346247,      -9.97065965,                0,    0.01745329252,    0.01745329252,99998.78692626953
10.73,        -0.2946993,        0.38310909,-9.941189720000001,     0.01745329252,     0.01745329252,                 0, 99998.54278564453
10.81,       -0.26522937,        0.35363916,-9.931366410000001,     0.01745329252,     0.01745329252,     0.01745329252, 99998.27575683594
10.9,       -0.27505268,        0.36346247,-9.931366410000001,                 0,                 0,                 0, 99998.00872802734
10.99,       -0.27505268,        0.38310909,-9.941189720000001,     0.01745329252,     0.01745329252,                 0, 99997.75695800781
11.08,      -0.27505268,       0.37328578,      -9.96083634,    0.01745329252,    0.03490658504,    0.01745329252,99997.48992919922
11.17,      -0.27505268,       0.38310909,      -9.95101303,    0.01745329252,    0.01745329252,                0,99997.24578857422
11.26,       -0.28487599,        0.37328578,-9.931366410000001,                 0,     0.01745329252,                 0, 99996.97113037109
11.36,       -0.27505268,        0.37328578,-9.931366410000001,                 0,     0.05235987756,                 0, 99996.69647216797
11.42,      -0.27505268,       0.36346247,      -9.96083634,                0,    0.03490658504,                0,99996.44470214844
11.52,       -0.25540606,        0.37328578,-9.941189720000001,                 0,     0.03490658504,                 0, 99996.17004394531
11.57,       -0.27505268,        0.37328578,-9.941189720000001,                 0,     0.01745329252,     0.01745329252, 99995.89538574219
11.66,      -0.28487599,       0.38310909,      -9.96083634,                0,    0.01745329252,    0.01745329252,99995.62835693359
11.75,      -0.28487599,       0.34381585,      -9.95101303,   -0.01745329252,    0.01745329252,                0,99995.34606933594
11.84,      -0.28487599,       0.36346247,      -9.95101303,                0,                0,    0.03490658504,99995.07141113281
11.9,       -0.2946993,       0.38310909,      -9.95101303,   -0.01745329252,                0,                0,99994.79675292969
11.98,       -0.27505268,        0.37328578,-9.941189720000001,                 0,                 0,                 0, 99994.52972412109
12.07,       -0.28487599,        0.37328578,-9.931366410000001,    -0.01745329252,                 0,                 0, 99994.23980712891
12.15,      -0.27505268,       0.38310909,      -9.96083634,                0,                0,                0,99993.96514892578
12.25,      -0.27505268,       0.36346247,      -9.95101303,                0,   -0.01745329252,    0.01745329252,99993.69049072266
12.33,       -0.27505268,        0.38310909,-9.941189720000001,    -0.01745329252,                 0,                 0,   99993.408203125
12.37,       -0.28487599,        0.37328578,-9.941189720000001,                 0,                 0,                 0, 99993.12591552734
12.46,       -0.28487599,        0.37328578,-9.931366410000001,    -0.01745329252,                 0,     0.01745329252, 99992.82836914062
12.54,     -0.27505268,      0.38310909,     -9.95101303,  -0.01745329252,  -0.01745329252,   0.01745329252,99992.5537109375
12.63,      -0.27505268,       0.37328578,      -9.95101303,                0,                0,    0.01745329252,99992.26379394531
12.71,       -0.27505268,         0.3929324,-9.931366410000001,                 0,    -0.01745329252,     0.01745329252, 99991.97387695312
12.8,       -0.27505268,        0.37328578,-9.931366410000001,    -0.01745329252,    -0.01745329252,     0.01745329252, 99991.69158935547
12.89,       -0.26522937,         0.3929324,-9.941189720000001,    -0.03490658504,                 0,                 0, 99991.40930175781
12.95,       -0.2946993,       0.37328578,      -9.96083634,   -0.01745329252,   -0.01745329252,                0,99991.09649658203
13.03,       -0.26522937,        0.37328578,-9.931366410000001,    -0.01745329252,    -0.01745329252,                 0, 99990.80657958984
13.11,       -0.26522937,        0.37328578,-9.931366410000001,    -0.01745329252,    -0.01745329252,     0.01745329252, 99990.51666259766
13.2,       -0.27505268,        0.37328578,-9.921543099999999,    -0.01745329252,    -0.01745329252,                 0, 99990.21911621094
13.28,       -0.27505268,        0.37328578,-9.931366410000001,                 0,    -0.03490658504,     0.01745329252, 99989.91394042969
13.37,       -0.27505268,        0.37328578,-9.931366410000001,    -0.01745329252,    -0.03490658504,     0.03490658504, 99989.61639404297
13.45,       -0.27505268,        0.38310909,-9.931366410000001,                 0,                 0,                 0, 99989.31121826172
13.52,       -0.28487599,        0.38310909,-9.921543099999999,                 0,    -0.01745329252,     0.01745329252, 99989.00604248047
13.61,       -0.27505268,        0.36346247,-9.911719789999999,                 0,    -0.01745329252,     0.03490658504, 99988.70086669922
13.69,       -0.28487599,        0.38310909,-9.911719789999999,                 0,    -0.01745329252,     0.01745329252,  99988.4033203125
13.78,       -0.27505268,         0.3929324,-9.931366410000001,                 0,    -0.01745329252,                 0, 99988.10577392578
13.89,       -0.27505268,        0.35363916,-9.931366410000001,     0.01745329252,    -0.01745329252,                 0, 99987.80059814453
13.98,       -0.27505268,        0.37328578,-9.931366410000001,                 0,                 0,     0.03490658504, 99987.48779296875
14.07,       -0.27505268,        0.38310909,-9.931366410000001,     0.01745329252,    -0.03490658504,                 0, 99987.19024658203
14.14,       -0.28487599,        0.37328578,-9.941189720000001,                 0,    -0.03490658504,                 0, 99986.87744140625
14.25,       -0.28487599,        0.35363916,-9.911719789999999,                 0,    -0.01745329252,     0.01745329252, 99986.56463623047
14.33,      -0.28487599,       0.35363916,      -9.90189648,    0.01745329252,   -0.01745329252,    0.01745329252,99986.23657226562
14.42,       -0.26522937,        0.36346247,-9.911719789999999,     0.01745329252,    -0.03490658504,     0.01745329252, 99985.93139648438
14.49,        -0.2946993,        0.37328578,-9.921543099999999,     0.03490658504,                 0,     0.01745329252, 99985.61859130859
14.58,       -0.28487599,        0.36346247,-9.931366410000001,     0.03490658504,    -0.01745329252,     0.01745329252, 99985.29052734375
14.67,       -0.28487599,        0.37328578,-9.931366410000001,     0.05235987756,                 0,                 0,  99984.9853515625
14.76,       -0.28487599,        0.36346247,-9.921543099999999,     0.03490658504,                 0,                 0, 99984.66491699219
14.86,        -0.2946993,        0.37328578,-9.911719789999999,     0.01745329252,                 0,                 0, 99984.34448242188
14.96,       -0.28487599,        0.35363916,-9.941189720000001,     0.01745329252,                 0,                 0, 99984.01641845703
15.06,       -0.27505268,        0.37328578,-9.931366410000001,     0.01745329252,                 0,     0.01745329252, 99983.68835449219
15.14,      -0.28487599,        0.3929324,      -9.95101303,    0.01745329252,                0,    0.01745329252,99983.36029052734
15.24,       -0.28487599,        0.37328578,-9.941189720000001,     0.01745329252,     0.01745329252,     0.03490658504,  99983.0322265625
15.31,       -0.28487599,        0.37328578,-9.931366410000001,     0.01745329252,     0.01745329252,     0.01745329252, 99982.71942138672
15.37,       -0.27505268,        0.36346247,-9.931366410000001,                 0,     0.03490658504,                 0, 99982.39135742188
15.46,      -0.27505268,       0.37328578,      -9.95101303,                0,    0.01745329252,                0,99982.04040527344
15.53,       -0.28487599,        0.36346247,-9.941189720000001,     0.01745329252,     0.01745329252,     0.01745329252, 99981.71997070312
15.62,      -0.27505268,       0.37328578,      -9.95101303,                0,    0.03490658504,    0.01745329252,99981.39190673828
15.72,       -0.28487599,        0.37328578,-9.911719789999999,                 0,     0.03490658504,     0.01745329252,  99981.0791015625
15.82,       -0.27505268,        0.35363916,-9.931366410000001,                 0,     0.03490658504,     0.01745329252, 99980.74340820312
15.91,       -0.28487599,        0.37328578,-9.931366410000001,    -0.01745329252,     0.03490658504,                 0, 99980.40008544922
15.97,       -0.26522937,        0.36346247,-9.921543099999999,    -0.03490658504,     0.01745329252,     0.01745329252, 99980.07202148438
16.07,       -0.31434592,        0.38310909,-9.931366410000001,                 0,     0.03490658504,     0.01745329252, 99979.72869873047
16.13,      -0.26522937,       0.37328578,      -9.95101303,   -0.01745329252,    0.05235987756,    0.01745329252,99979.38537597656
16.22,       -0.26522937,        0.36346247,-9.931366410000001,    -0.01745329252,     0.01745329252,     0.03490658504, 99979.04205322266
16.32,       -0.28487599,        0.38310909,-9.941189720000001,    -0.03490658504,     0.01745329252,     0.01745329252, 99978.69873046875
16.41,       -0.26522937,        0.36346247,-9.921543099999999,    -0.05235987756,     0.03490658504,     0.01745329252, 99978.34777832031
16.5,       -0.28487599,        0.37328578,-9.931366410000001,    -0.03490658504,     0.01745329252,     0.01745329252, 99977.99682617188
16.6,       -0.28487599,        0.36346247,-9.931366410000001,    -0.03490658504,     0.03490658504,     0.01745329252, 99977.64587402344
16.67,       -0.26522937,        0.37328578,-9.931366410000001,    -0.03490658504,                 0,     0.01745329252, 99977.28729248047
16.76,      -0.27505268,       0.36346247,      -9.95101303,   -0.03490658504,    0.01745329252,    0.01745329252,99976.95159912109
16.87,      -0.26522937,       0.38310909,      -9.95101303,   -0.01745329252,                0,    0.01745329252,99976.59301757812
16.96,      -0.27505268,       0.37328578,      -9.95101303,   -0.01745329252,                0,    0.01745329252,99976.24206542969
17.05,      -0.27505268,       0.36346247,      -9.97065965,   -0.01745329252,                0,    0.03490658504,99975.87585449219
17.14,      -0.26522937,       0.37328578,      -9.96083634,   -0.01745329252,                0,    0.03490658504,99975.53253173828
17.24,      -0.30452261,       0.37328578,      -9.95101303,                0,                0,                0,99975.19683837891
17.32,       -0.27505268,        0.37328578,-9.941189720000001,                 0,    -0.01745329252,     0.01745329252, 99974.82299804688
17.39,       -0.28487599,        0.37328578,-9.931366410000001,    -0.01745329252,                 0,                 0, 99974.47204589844
17.49,       -0.27505268,        0.37328578,-9.921543099999999,    -0.03490658504,                 0,     0.01745329252, 99974.09057617188
17.55,       -0.27505268,        0.38310909,-9.931366410000001,    -0.03490658504,                 0,     0.01745329252, 99973.72436523438
17.64,       -0.26522937,        0.35363916,-9.911719789999999,                 0,    -0.01745329252,                 0, 99973.37341308594
17.69,       -0.28487599,        0.35363916,-9.931366410000001,    -0.01745329252,                 0,     0.03490658504, 99972.99957275391
17.79,       -0.27505268,        0.36346247,-9.941189720000001,                 0,                 0,     0.01745329252, 99972.64099121094
17.85,       -0.28487599,        0.36346247,-9.941189720000001,                 0,                 0,                 0, 99972.28240966797
17.94,       -0.26522937,        0.36346247,-9.911719789999999,                 0,                 0,     0.01745329252, 99971.91619873047
18.03,        -0.2946993,        0.38310909,-9.921543099999999,                 0,                 0,                 0, 99971.54235839844
18.12,       -0.28487599,        0.37328578,-9.911719789999999,                 0,                 0,     0.03490658504, 99971.15325927734
18.21,      -0.28487599,        0.3929324,      -9.90189648,                0,   -0.03490658504,    0.01745329252,99970.78704833984
18.28,       -0.26522937,        0.37328578,-9.921543099999999,                 0,    -0.01745329252,     0.01745329252, 99970.42083740234
18.37,      -0.27505268,       0.38310909,      -9.90189648,                0,   -0.01745329252,    0.03490658504,99970.03173828125
18.45,      -0.27505268,       0.36346247,      -9.90189648,    0.01745329252,   -0.03490658504,    0.01745329252,99969.67315673828
18.53,       -0.26522937,        0.37328578,-9.921543099999999,     0.01745329252,    -0.03490658504,     0.01745329252, 99969.29168701172
18.62,       -0.26522937,        0.38310909,-9.911719789999999,     0.01745329252,    -0.03490658504,     0.03490658504, 99968.92547607422
18.7,      -0.27505268,       0.37328578,      -9.90189648,                0,   -0.03490658504,    0.03490658504,99968.53637695312
18.77,       -0.27505268,        0.35363916,-9.911719789999999,     0.01745329252,                 0,     0.01745329252, 99968.15490722656
18.82,   -0.2946993,    0.3929324,  -9.89207317,            0,            0,0.01745329252,99967.7734375
18.91,       -0.2946993,       0.37328578,      -9.90189648,    0.01745329252,                0,    0.03490658504,99967.38433837891
18.99,      -0.28487599,       0.37328578,      -9.88224986,    0.01745329252,   -0.01745329252,    0.01745329252,99967.01812744141
19.08,       -0.27505268,        0.40275571,-9.911719789999999,     0.01745329252,                 0,     0.01745329252, 99966.62139892578
19.16,      -0.27505268,       0.37328578,      -9.89207317,    0.01745329252,                0,    0.01745329252,99966.23229980469
19.26,      -0.28487599,       0.37328578,      -9.90189648,    0.03490658504,                0,    0.01745329252,99965.85845947266
19.33,      -0.27505268,       0.38310909,      -9.89207317,    0.01745329252,                0,    0.01745329252,99965.46936035156
19.42,    -0.27505268,     0.37328578,    -9.90189648,  0.01745329252,              0,  0.01745329252,99965.087890625
19.48,       -0.28487599,        0.38310909,-9.911719789999999,     0.03490658504,                 0,     0.01745329252, 99964.69879150391
19.52,      -0.26522937,       0.35363916,      -9.90189648,                0,                0,    0.03490658504,99964.31732177734
19.6,      -0.28487599,       0.37328578,      -9.89207317,                0,                0,    0.03490658504,99963.92059326172
19.68,      -0.26522937,       0.38310909,      -9.89207317,    0.01745329252,                0,    0.03490658504,99963.53149414062
19.73,    -0.28487599,     0.36346247,    -9.88224986,              0,              0,  0.01745329252,99963.134765625
19.81,      -0.27505268,       0.37328578,      -9.90189648,                0,    0.01745329252,    0.01745329252,99962.75329589844
19.88,       -0.2946993,       0.38310909,      -9.89207317,                0,    0.01745329252,    0.01745329252,99962.34893798828
19.96,      -0.25540606,       0.36346247,      -9.87242655,                0,    0.01745329252,    0.01745329252,99961.95983886719
20.02,      -0.28487599,       0.36346247,      -9.87242655,                0,    0.01745329252,                0,99961.55548095703
20.1,      -0.27505268,       0.36346247,      -9.88224986,                0,    0.01745329252,    0.01745329252,99961.16638183594
20.17,      -0.27505268,       0.37328578,      -9.89207317,                0,    0.01745329252,    0.03490658504,99960.75439453125
20.26,      -0.26522937,       0.37328578,      -9.89207317,    0.01745329252,    0.01745329252,    0.03490658504,99960.36529541016
20.32,       -0.27505268,        0.36346247,-9.911719789999999,                 0,     0.01745329252,     0.01745329252, 99959.96856689453
20.4,      -0.27505268,       0.36346247,      -9.89207317,                0,    0.03490658504,    0.01745329252,99959.57183837891
20.48,      -0.28487599,       0.37328578,      -9.89207317,                0,                0,    0.03490658504,99959.18273925781
20.56,      -0.28487599,       0.35363916,      -9.89207317,                0,                0,                0,99958.77838134766
20.65,      -0.28487599,       0.37328578,      -9.87242655,                0,                0,    0.01745329252,99958.35876464844
20.73,      -0.28487599,       0.36346247,      -9.89207317,                0,    0.01745329252,                0,99957.96203613281
20.81,      -0.28487599,       0.35363916,      -9.90189648,   -0.01745329252,                0,    0.01745329252,99957.56530761719
20.9,      -0.26522937,        0.3929324,      -9.88224986,                0,                0,    0.01745329252,99957.16094970703
20.99,      -0.27505268,       0.37328578,      -9.88224986,   -0.01745329252,                0,    0.01745329252,99956.75659179688
21.06,       -0.2946993,       0.38310909,      -9.88224986,   -0.03490658504,    0.03490658504,    0.01745329252,99956.35223388672
21.13,      -0.28487599,       0.38310909,      -9.87242655,                0,    0.01745329252,    0.03490658504,99955.94787597656
21.21,      -0.27505268,       0.35363916,      -9.88224986,                0,                0,    0.03490658504,99955.52825927734
21.25,      -0.24558275,       0.38310909,      -9.90189648,   -0.01745329252,    0.01745329252,    0.01745329252,99955.12390136719
21.29,      -0.28487599,       0.37328578,      -9.88224986,                0,                0,    0.01745329252,99954.72717285156
21.36,       -0.2946993,       0.38310909,      -9.89207317,   -0.01745329252,    0.01745329252,    0.03490658504,99954.33044433594
21.42,      -0.27505268,       0.37328578,      -9.87242655,   -0.03490658504,                0,    0.01745329252,99953.91845703125
21.5,      -0.27505268,       0.36346247,      -9.90189648,                0,                0,    0.01745329252,99953.51409912109
21.57,      -0.25540606,        0.3929324,      -9.89207317,   -0.01745329252,                0,    0.01745329252,99953.11737060547
21.63,      -0.27505268,       0.37328578,      -9.87242655,   -0.01745329252,                0,    0.03490658504,99952.70538330078
21.69,      -0.26522937,       0.37328578,      -9.87242655,                0,                0,    0.03490658504,99952.29339599609
21.77,      -0.28487599,       0.34381585,      -9.88224986,                0,                0,    0.01745329252,99951.88903808594
21.84,      -0.28487599,       0.37328578,      -9.89207317,                0,   -0.01745329252,    0.01745329252,99951.46942138672
21.92,      -0.28487599,       0.36346247,      -9.89207317,                0,                0,    0.03490658504,99951.05743408203
21.97,      -0.26522937,       0.37328578,      -9.89207317,   -0.01745329252,                0,    0.01745329252,99950.64544677734
22.04,      -0.27505268,       0.38310909,      -9.89207317,                0,   -0.01745329252,    0.01745329252,99950.22583007812
22.07,      -0.27505268,       0.38310909,      -9.88224986,                0,   -0.01745329252,    0.03490658504,99949.81384277344
22.15,       -0.2946993,       0.36346247,      -9.88224986,                0,   -0.01745329252,    0.05235987756,99949.40948486328
22.23,      -0.27505268,       0.37328578,      -9.88224986,                0,   -0.01745329252,    0.03490658504,99948.98223876953
22.31,      -0.27505268,       0.40275571,      -9.87242655,                0,   -0.03490658504,    0.01745329252,99948.56262207031
22.39,       -0.26522937,        0.37328578,-9.911719789999999,                 0,    -0.01745329252,     0.03490658504, 99948.15063476562
22.48,      -0.27505268,       0.38310909,      -9.87242655,    0.01745329252,   -0.05235987756,    0.03490658504,99947.73864746094
22.53,       -0.27505268,         0.3929324,-9.852779930000001,     0.03490658504,    -0.03490658504,                 0, 99947.32666015625
22.59,      -0.27505268,        0.3929324,      -9.86260324,    0.01745329252,   -0.03490658504,    0.01745329252,99946.91467285156
22.65,      -0.25540606,       0.37328578,      -9.88224986,                0,   -0.03490658504,    0.03490658504,99946.50268554688
22.73,      -0.27505268,       0.38310909,      -9.86260324,                0,   -0.01745329252,    0.01745329252,99946.06018066406
22.81,       -0.2946993,       0.38310909,      -9.89207317,    0.01745329252,   -0.01745329252,    0.01745329252,99945.64819335938
22.86,      -0.26522937,       0.36346247,      -9.87242655,                0,   -0.01745329252,    0.01745329252,99945.21331787109
22.94,       -0.2946993,       0.36346247,      -9.87242655,    0.01745329252,                0,    0.01745329252,99944.79370117188
22.98,      -0.27505268,       0.37328578,      -9.87242655,    0.03490658504,                0,    0.01745329252,99944.37408447266
23.06,      -0.27505268,       0.37328578,      -9.86260324,    0.01745329252,                0,    0.03490658504,99943.95446777344
23.14,      -0.26522937,       0.37328578,      -9.89207317,                0,   -0.01745329252,    0.05235987756,99943.52722167969
23.22,       -0.28487599,        0.35363916,-9.852779930000001,                 0,                 0,     0.03490658504,   99943.115234375
23.29,       -0.26522937,        0.37328578,-9.852779930000001,                 0,     0.01745329252,                 0, 99942.69561767578
23.35,      -0.27505268,       0.37328578,      -9.87242655,                0,                0,    0.01745329252,99942.26837158203
23.4,      -0.27505268,       0.37328578,      -9.88224986,    0.01745329252,                0,    0.03490658504,99941.84112548828
23.48,        -0.2946993,        0.37328578,-9.852779930000001,                 0,     0.01745329252,     0.01745329252, 99941.41387939453
23.54,      -0.27505268,       0.37328578,      -9.86260324,                0,    0.01745329252,    0.03490658504,99940.99426269531
23.62,       -0.27505268,        0.34381585,-9.852779930000001,                 0,     0.01745329252,     0.03490658504, 99940.56701660156
23.68,      -0.28487599,       0.37328578,      -9.86260324,                0,    0.03490658504,    0.03490658504,99940.14739990234
23.77,      -0.28487599,       0.36346247,      -9.86260324,    0.01745329252,    0.03490658504,    0.03490658504,99939.72015380859
23.82,      -0.28487599,        0.3929324,      -9.87242655,                0,    0.01745329252,    0.01745329252,99939.30053710938
23.86,      -0.28487599,       0.37328578,      -9.87242655,                0,    0.01745329252,    0.03490658504,99938.87329101562
23.93,      -0.26522937,        0.3929324,      -9.86260324,                0,    0.01745329252,    0.01745329252,99938.43841552734
24.02,       -0.27505268,        0.37328578,-9.852779930000001,                 0,                 0,     0.01745329252, 99938.02642822266
24.08,      -0.25540606,       0.37328578,      -9.86260324,                0,                0,    0.01745329252,99937.58392333984
24.13,      -0.27505268,       0.37328578,      -9.88224986,   -0.01745329252,    0.01745329252,    0.03490658504,99937.15667724609
24.21,       -0.26522937,        0.36346247,-9.852779930000001,    -0.01745329252,     0.05235987756,     0.01745329252, 99936.72943115234
24.27,      -0.28487599,       0.38310909,      -9.87242655,                0,    0.03490658504,    0.03490658504,99936.29455566406
24.35,      -0.28487599,       0.38310909,      -9.87242655,   -0.01745329252,                0,    0.03490658504,99935.86730957031
24.42,      -0.28487599,       0.37328578,      -9.86260324,   -0.01745329252,    0.03490658504,    0.01745329252,99935.44769287109
24.51,      -0.28487599,       0.35363916,      -9.87242655,   -0.03490658504,    0.03490658504,    0.03490658504,99935.00518798828
24.58,      -0.27505268,       0.36346247,      -9.87242655,   -0.03490658504,                0,    0.03490658504,99934.58557128906
24.65,       -0.28487599,        0.36346247,-9.852779930000001,    -0.03490658504,     0.01745329252,     0.03490658504, 99934.15832519531
24.7,     -0.26522937,      0.37328578,     -9.88224986,  -0.03490658504,   0.03490658504,   0.05235987756,99933.7158203125
24.74,      -0.28487599,       0.37328578,      -9.86260324,   -0.03490658504,    0.01745329252,    0.01745329252,99933.29620361328
24.83,      -0.28487599,       0.37328578,      -9.87242655,   -0.01745329252,    0.01745329252,    0.03490658504,99932.85369873047
24.88,      -0.26522937,       0.38310909,      -9.87242655,                0,    0.01745329252,    0.03490658504,99932.43408203125
24.97,       -0.2946993,       0.38310909,      -9.87242655,                0,    0.01745329252,    0.03490658504,99931.99920654297
25.05,      -0.28487599,       0.37328578,      -9.86260324,                0,    0.01745329252,    0.01745329252,99931.55670166016
25.13,      -0.28487599,       0.37328578,      -9.87242655,   -0.01745329252,                0,    0.03490658504,99931.12945556641
25.19,      -0.27505268,       0.37328578,      -9.86260324,                0,                0,    0.03490658504,99930.68695068359
25.25,      -0.28487599,       0.36346247,      -9.89207317,                0,                0,    0.03490658504,99930.24444580078
25.32,      -0.28487599,       0.38310909,      -9.86260324,                0,                0,    0.05235987756,99929.80194091797
25.4,       -0.2946993,       0.37328578,      -9.86260324,   -0.01745329252,   -0.01745329252,    0.03490658504,99929.37469482422
25.48,      -0.27505268,       0.37328578,      -9.86260324,   -0.01745329252,   -0.01745329252,    0.03490658504,99928.93981933594
25.53,      -0.28487599,       0.37328578,      -9.87242655,                0,   -0.01745329252,    0.03490658504,99928.49731445312
25.61,      -0.28487599,       0.37328578,      -9.87242655,                0,   -0.03490658504,    0.05235987756,99928.06243896484
25.66,       -0.28487599,        0.35363916,-9.852779930000001,                 0,    -0.05235987756,     0.01745329252, 99927.61993408203
25.74,      -0.27505268,       0.35363916,      -9.86260324,                0,   -0.03490658504,    0.01745329252,99927.16979980469
25.79,      -0.25540606,       0.37328578,      -9.87242655,                0,   -0.01745329252,    0.03490658504,99926.72729492188
25.88,      -0.26522937,       0.35363916,      -9.87242655,                0,   -0.03490658504,    0.03490658504,99926.30004882812
25.97,      -0.28487599,       0.38310909,      -9.86260324,                0,                0,    0.01745329252,99925.85754394531
26.04,      -0.27505268,        0.3929324,      -9.86260324,                0,   -0.03490658504,    0.03490658504,99925.40740966797
26.09,      -0.26522937,       0.38310909,      -9.87242655,                0,   -0.03490658504,    0.01745329252,99924.98016357422
26.17,      -0.28487599,       0.38310909,      -9.87242655,                0,   -0.03490658504,    0.03490658504,99924.53002929688
26.25,      -0.27505268,       0.35363916,      -9.88224986,                0,   -0.01745329252,    0.03490658504,99924.09515380859
26.31,       -0.2946993,       0.36346247,      -9.86260324,                0,   -0.03490658504,    0.01745329252,99923.64501953125
26.36,       -0.27505268,        0.37328578,-9.842956620000001,     0.01745329252,    -0.03490658504,     0.03490658504, 99923.20251464844
26.46,       -0.2946993,       0.37328578,      -9.86260324,                0,   -0.01745329252,    0.01745329252,99922.75238037109
26.49,      -0.26522937,        0.3929324,      -9.86260324,    0.01745329252,   -0.01745329252,    0.03490658504,99922.30224609375
26.57,      -0.27505268,       0.38310909,      -9.87242655,                0,   -0.03490658504,    0.03490658504,99921.85974121094
26.62,      -0.27505268,       0.36346247,      -9.87242655,    0.01745329252,   -0.01745329252,    0.01745329252,99921.42486572266
26.69,      -0.28487599,       0.38310909,      -9.86260324,                0,   -0.01745329252,    0.03490658504,99920.98999023438
26.78,     -0.28487599,      0.37328578,     -9.87242655,   0.03490658504,               0,   0.05235987756,99920.5322265625
26.85,       -0.28487599,        0.36346247,-9.852779930000001,     0.01745329252,                 0,                 0, 99920.08972167969
26.93,      -0.28487599,       0.37328578,      -9.86260324,    0.01745329252,   -0.01745329252,    0.03490658504,99919.63195800781
27.02,    -0.26522937,     0.37328578,    -9.86260324,  0.01745329252,              0,  0.03490658504,99919.189453125
27.06,      -0.26522937,       0.38310909,      -9.87242655,    0.01745329252,                0,    0.01745329252,99918.73168945312
27.14,      -0.27505268,       0.38310909,      -9.88224986,    0.01745329252,                0,    0.01745329252,99918.29681396484
27.22,     -0.27505268,      0.35363916,     -9.86260324,   0.01745329252,               0,   0.01745329252,99917.8466796875
27.31,       -0.28487599,        0.36346247,-9.852779930000001,                 0,                 0,     0.01745329252, 99917.38128662109
27.41,       -0.30452261,        0.37328578,-9.842956620000001,                 0,                 0,     0.01745329252, 99916.92352294922
27.49,      -0.25540606,       0.36346247,      -9.86260324,    0.01745329252,    0.01745329252,    0.03490658504,99916.47338867188
27.58,       -0.26522937,        0.37328578,-9.852779930000001,                 0,     0.01745329252,     0.01745329252, 99916.02325439453
27.67,      -0.30452261,       0.36346247,      -9.87242655,                0,    0.01745329252,    0.01745329252,99915.58837890625
27.76,       -0.26522937,        0.35363916,-9.852779930000001,                 0,                 0,     0.03490658504, 99915.13061523438
27.84,     -0.27505268,       0.3929324,     -9.88224986,               0,               0,   0.03490658504,99914.6728515625
27.93,      -0.26522937,       0.37328578,      -9.87242655,                0,    0.01745329252,    0.03490658504,99914.21508789062
28.02,      -0.26522937,        0.3929324,      -9.86260324,                0,    0.01745329252,    0.03490658504,99913.76495361328
28.11,      -0.28487599,       0.37328578,      -9.86260324,                0,    0.01745329252,    0.05235987756,99913.30718994141
28.21,       -0.30452261,        0.38310909,-9.833133310000001,    -0.01745329252,     0.01745329252,     0.05235987756, 99912.84942626953
28.28,       -0.27505268,        0.37328578,-9.852779930000001,    -0.01745329252,     0.03490658504,     0.05235987756, 99912.40692138672
28.35,       -0.2946993,       0.37328578,      -9.87242655,                0,    0.01745329252,    0.03490658504,99911.94152832031
28.43,       -0.26522937,        0.35363916,-9.852779930000001,    -0.01745329252,     0.03490658504,     0.05235987756, 99911.49139404297
28.48,      -0.27505268,       0.36346247,      -9.86260324,                0,                0,    0.03490658504,99911.04125976562
28.54,      -0.24558275,       0.37328578,      -9.87242655,                0,    0.01745329252,    0.03490658504,99910.58349609375
28.58,      -0.28487599,       0.36346247,      -9.88224986,                0,    0.01745329252,    0.05235987756,99910.14099121094
28.65,      -0.25540606,       0.37328578,      -9.86260324,                0,    0.03490658504,    0.05235987756,99909.68322753906
28.72,      -0.28487599,       0.38310909,      -9.87242655,                0,                0,    0.01745329252,99909.21783447266
28.81,       -0.27505268,        0.36346247,-9.852779930000001,                 0,                 0,     0.05235987756, 99908.76770019531
28.88,      -0.26522937,       0.38310909,      -9.89207317,                0,    0.01745329252,    0.03490658504,99908.30993652344
28.96,      -0.27505268,       0.36346247,      -9.88224986,                0,                0,    0.03490658504,99907.84454345703
29.02,      -0.26522937,       0.37328578,      -9.87242655,                0,    0.01745329252,    0.03490658504,99907.39440917969
29.1,      -0.28487599,       0.37328578,      -9.87242655,                0,                0,    0.05235987756,99906.92901611328
29.19,      -0.28487599,        0.3929324,      -9.87242655,                0,                0,    0.01745329252,99906.46362304688
29.28,    -0.27505268,     0.37328578,    -9.88224986,              0,              0,  0.01745329252,99906.005859375
29.37,      -0.28487599,       0.38310909,      -9.88224986,                0,    0.01745329252,    0.01745329252,99905.54046630859
29.44,      -0.26522937,       0.34381585,      -9.88224986,                0,                0,    0.03490658504,99905.05981445312
29.52,      -0.28487599,       0.38310909,      -9.88224986,                0,                0,    0.05235987756,99904.60968017578
29.61,       -0.2946993,       0.36346247,      -9.87242655,   -0.01745329252,                0,    0.03490658504,99904.15191650391
29.71,      -0.2946993,       0.3929324,     -9.87242655,               0,               0,   0.03490658504,99903.6865234375
29.79,      -0.28487599,       0.37328578,      -9.86260324,   -0.01745329252,                0,    0.03490658504,99903.22113037109
29.88,      -0.26522937,       0.38310909,      -9.89207317,                0,   -0.01745329252,    0.05235987756,99902.74810791016
29.94,      -0.27505268,       0.36346247,      -9.88224986,                0,                0,    0.05235987756,99902.29034423828
30.03,      -0.28487599,       0.37328578,      -9.88224986,   -0.01745329252,                0,    0.03490658504,99901.81732177734
30.08,      -0.27505268,       0.37328578,      -9.87242655,   -0.01745329252,                0,    0.05235987756,99901.35955810547
30.17,      -0.27505268,       0.38310909,      -9.89207317,   -0.01745329252,   -0.01745329252,    0.03490658504,99900.88653564453
30.22,      -0.27505268,       0.37328578,      -9.86260324,                0,   -0.01745329252,    0.03490658504,99900.40588378906
30.31,      -0.30452261,       0.37328578,      -9.87242655,   -0.01745329252,   -0.01745329252,    0.03490658504,99899.92523193359
30.39,      -0.28487599,       0.36346247,      -9.88224986,                0,   -0.01745329252,    0.01745329252,99899.45220947266
30.48,      -0.28487599,       0.37328578,      -9.87242655,                0,                0,    0.03490658504,99898.98681640625
30.55,      -0.27505268,       0.38310909,      -9.87242655,   -0.01745329252,                0,    0.03490658504,99898.52142333984
30.59,      -0.28487599,       0.36346247,      -9.88224986,                0,   -0.01745329252,    0.03490658504,99898.06365966797
30.67,     -0.28487599,      0.34381585,     -9.88224986,               0,  -0.01745329252,   0.01745329252,99897.5830078125
30.77,      -0.26522937,       0.35363916,      -9.90189648,   -0.01745329252,   -0.01745329252,    0.03490658504,99897.11761474609
30.82,      -0.27505268,       0.37328578,      -9.89207317,   -0.01745329252,   -0.03490658504,    0.05235987756,99896.65222167969
30.88,      -0.27505268,       0.36346247,      -9.87242655,   -0.03490658504,   -0.01745329252,    0.03490658504,99896.17919921875
30.97,      -0.27505268,       0.37328578,      -9.89207317,   -0.01745329252,   -0.01745329252,    0.06981317008,99895.70617675781
31.06,      -0.28487599,       0.35363916,      -9.89207317,                0,                0,    0.01745329252,99895.22552490234
31.12,      -0.25540606,       0.37328578,      -9.88224986,                0,                0,    0.03490658504,99894.76013183594
31.2,      -0.27505268,       0.35363916,      -9.88224986,                0,   -0.01745329252,    0.05235987756,99894.27185058594
31.29,    -0.28487599,     0.34381585,    -9.89207317, -0.01745329252, -0.01745329252,  0.03490658504,99893.798828125
31.35,      -0.28487599,       0.37328578,      -9.89207317,   -0.01745329252,                0,    0.03490658504,99893.31817626953
31.44,      -0.26522937,       0.37328578,      -9.88224986,                0,                0,    0.05235987756,99892.82989501953
31.52,      -0.28487599,       0.37328578,      -9.86260324,                0,                0,    0.03490658504,99892.34161376953
31.6,      -0.30452261,       0.40275571,      -9.90189648,                0,                0,    0.05235987756,99891.87622070312
31.69,      -0.28487599,       0.37328578,      -9.88224986,                0,                0,    0.03490658504,99891.38793945312
31.78,      -0.26522937,       0.38310909,      -9.87242655,                0,                0,    0.05235987756,99890.90728759766
31.86,      -0.28487599,       0.36346247,      -9.87242655,    0.01745329252,                0,    0.03490658504,99890.41900634766
31.95,      -0.28487599,       0.38310909,      -9.87242655,                0,    0.01745329252,    0.05235987756,99889.93835449219
32.04,      -0.26522937,       0.36346247,      -9.87242655,                0,    0.01745329252,    0.03490658504,99889.45007324219
32.12,      -0.26522937,       0.38310909,      -9.86260324,                0,    0.01745329252,    0.05235987756,99888.96179199219
32.2,       -0.28487599,        0.37328578,-9.852779930000001,     0.01745329252,     0.01745329252,     0.05235987756, 99888.47351074219
32.29,       -0.2946993,       0.38310909,      -9.87242655,                0,    0.01745329252,    0.05235987756,99887.99285888672
32.38,      -0.27505268,       0.36346247,      -9.86260324,                0,    0.01745329252,    0.03490658504,99887.50457763672
32.44,       -0.26522937,        0.37328578,-9.852779930000001,     0.01745329252,     0.01745329252,     0.05235987756, 99887.02392578125
32.52,      -0.28487599,       0.37328578,      -9.86260324,    0.01745329252,                0,    0.01745329252,99886.54327392578
32.61,      -0.27505268,       0.36346247,      -9.86260324,    0.03490658504,    0.01745329252,    0.03490658504,99886.04736328125
32.69,       -0.27505268,        0.36346247,-9.842956620000001,     0.01745329252,     0.01745329252,     0.03490658504, 99885.56671142578
32.75,       -0.28487599,        0.37328578,-9.852779930000001,     0.01745329252,                 0,     0.05235987756, 99885.09368896484
32.84,      -0.28487599,       0.37328578,      -9.87242655,    0.03490658504,    0.01745329252,    0.05235987756,99884.59777832031
32.92,       -0.26522937,        0.36346247,-9.852779930000001,     0.01745329252,     0.01745329252,     0.01745329252, 99884.11712646484
33.01,       -0.27505268,        0.37328578,-9.852779930000001,     0.01745329252,     0.01745329252,     0.03490658504, 99883.61358642578
33.1,      -0.28487599,       0.36346247,      -9.86260324,                0,    0.03490658504,    0.05235987756,99883.14056396484
33.16,       -0.27505268,        0.38310909,-9.833133310000001,                 0,     0.01745329252,     0.03490658504, 99882.66754150391
33.22,       -0.28487599,        0.37328578,-9.842956620000001,                 0,     0.01745329252,     0.03490658504, 99882.16400146484
33.31,       -0.28487599,        0.38310909,-9.852779930000001,                 0,                 0,     0.05235987756, 99881.68334960938
33.39,       -0.27505268,        0.37328578,-9.852779930000001,                 0,     0.01745329252,     0.05235987756, 99881.18743896484
33.45,       -0.28487599,        0.37328578,-9.842956620000001,                 0,     0.01745329252,     0.06981317008, 99880.70678710938
33.53,       -0.25540606,        0.37328578,-9.852779930000001,     0.01745329252,     0.01745329252,     0.05235987756, 99880.21087646484
33.61,       -0.28487599,        0.37328578,-9.842956620000001,     0.01745329252,                 0,     0.01745329252, 99879.69970703125
33.7,       -0.28487599,         0.3929324,-9.842956620000001,                 0,     0.01745329252,     0.05235987756, 99879.22668457031
33.78,       -0.26522937,        0.37328578,-9.842956620000001,     0.01745329252,                 0,     0.05235987756, 99878.73077392578
33.86,      -0.27505268,       0.37328578,      -9.86260324,                0,                0,    0.03490658504,99878.25012207031
33.94,       -0.31434592,        0.35363916,-9.852779930000001,     0.01745329252,                 0,     0.05235987756, 99877.73895263672
34.03,        -0.2946993,        0.38310909,-9.842956620000001,                 0,                 0,     0.03490658504, 99877.26593017578
34.11,      -0.26522937,       0.35363916,      -9.86260324,                0,                0,    0.05235987756,99876.77764892578
34.19,        -0.2946993,        0.37328578,-9.852779930000001,                 0,                 0,     0.03490658504, 99876.28173828125
34.27,        -0.2946993,        0.37328578,-9.852779930000001,                 0,                 0,     0.05235987756, 99875.80108642578
34.33,       -0.25540606,        0.36346247,-9.852779930000001,                 0,                 0,     0.03490658504, 99875.30517578125
34.4,        -0.2946993,        0.36346247,-9.823309999999999,                 0,                 0,     0.05235987756, 99874.80163574219
34.48,       -0.28487599,        0.36346247,-9.852779930000001,                 0,                 0,     0.03490658504, 99874.32861328125
34.56,        -0.2946993,        0.38310909,-9.842956620000001,                 0,                 0,     0.05235987756, 99873.83270263672
34.61,      -0.27505268,        0.3929324,      -9.86260324,                0,                0,    0.05235987756,99873.34442138672
34.68,       -0.27505268,        0.37328578,-9.842956620000001,    -0.01745329252,                 0,     0.03490658504, 99872.84851074219
34.75,       -0.24558275,        0.36346247,-9.852779930000001,                 0,                 0,     0.03490658504, 99872.37548828125
34.85,       -0.27505268,        0.38310909,-9.842956620000001,                 0,                 0,     0.05235987756, 99871.87194824219
34.94,       -0.28487599,        0.35363916,-9.842956620000001,                 0,    -0.01745329252,     0.05235987756, 99871.37603759766
34.99,       -0.27505268,        0.37328578,-9.852779930000001,                 0,                 0,     0.05235987756, 99870.88775634766
35.06,      -0.26522937,       0.36346247,      -9.87242655,                0,   -0.01745329252,    0.05235987756,99870.39947509766
35.13,       -0.2946993,       0.36346247,      -9.87242655,                0,                0,    0.03490658504,99869.90356445312
35.21,       -0.28487599,        0.36346247,-9.842956620000001,                 0,                 0,     0.03490658504, 99869.40765380859
35.27,       -0.2946993,       0.37328578,      -9.88224986,                0,   -0.03490658504,    0.03490658504,99868.90411376953
35.34,       -0.27505268,        0.38310909,-9.852779930000001,                 0,    -0.01745329252,     0.05235987756,   99868.408203125
35.39,      -0.27505268,       0.36346247,      -9.86260324,   -0.01745329252,                0,    0.06981317008,99867.91229248047
35.46,      -0.26522937,       0.36346247,      -9.86260324,                0,                0,    0.03490658504,99867.42401123047
35.53,      -0.27505268,       0.36346247,      -9.86260324,                0,                0,    0.03490658504,99866.92810058594
35.61,      -0.27505268,       0.37328578,      -9.87242655,                0,                0,    0.05235987756,99866.42456054688
35.68,      -0.27505268,       0.38310909,      -9.87242655,                0,                0,    0.03490658504,99865.92864990234
35.73,       -0.2946993,       0.37328578,      -9.87242655,                0,                0,    0.03490658504,99865.41748046875
35.8,      -0.28487599,       0.37328578,      -9.86260324,                0,                0,    0.03490658504,99864.92156982422
35.85,      -0.27505268,       0.36346247,      -9.87242655,                0,                0,    0.03490658504,99864.42565917969
35.94,      -0.28487599,       0.37328578,      -9.86260324,                0,   -0.01745329252,    0.05235987756,99863.91448974609
36.02,      -0.27505268,       0.36346247,      -9.86260324,   -0.03490658504,                0,    0.05235987756,99863.42620849609
36.09,      -0.27505268,       0.38310909,      -9.87242655,   -0.01745329252,                0,    0.05235987756,99862.93029785156
36.14,       -0.2946993,       0.37328578,      -9.86260324,   -0.01745329252,                0,    0.05235987756,99862.44201660156
36.19,      -0.27505268,       0.35363916,      -9.87242655,                0,                0,    0.03490658504,99861.93084716797
36.29,      -0.27505268,        0.3929324,      -9.87242655,                0,   -0.01745329252,    0.05235987756,99861.43493652344
36.38,      -0.27505268,       0.35363916,      -9.86260324,   -0.01745329252,                0,    0.01745329252,99860.93902587891
36.48,       -0.28487599,         0.3929324,-9.852779930000001,                 0,                 0,     0.03490658504, 99860.42022705078
36.56,      -0.27505268,       0.36346247,      -9.86260324,                0,   -0.01745329252,    0.06981317008,99859.92431640625
36.62,      -0.28487599,       0.38310909,      -9.86260324,                0,                0,    0.05235987756,99859.41314697266
36.71,      -0.26522937,       0.38310909,      -9.87242655,                0,    0.01745329252,    0.05235987756,99858.90960693359
36.79,      -0.26522937,       0.38310909,      -9.86260324,   -0.01745329252,                0,    0.05235987756,99858.40606689453
36.88,      -0.28487599,       0.37328578,      -9.86260324,   -0.01745329252,                0,    0.03490658504,99857.89489746094
36.98,      -0.28487599,       0.34381585,      -9.86260324,                0,                0,    0.03490658504,99857.39898681641
37.03,       -0.26522937,        0.36346247,-9.852779930000001,                 0,    -0.01745329252,     0.06981317008, 99856.89544677734
37.12,      -0.26522937,       0.40275571,      -9.87242655,                0,                0,    0.05235987756,99856.39190673828
37.17,       -0.2946993,       0.37328578,      -9.87242655,                0,                0,    0.03490658504,99855.88073730469
37.25,      -0.27505268,       0.36346247,      -9.89207317,                0,                0,    0.05235987756,99855.38482666016
37.32,      -0.26522937,       0.38310909,      -9.87242655,                0,                0,    0.05235987756,99854.87365722656
37.39,     -0.28487599,      0.35363916,     -9.86260324,               0,   0.01745329252,   0.05235987756,99854.3701171875
37.47,      -0.26522937,        0.3929324,      -9.87242655,                0,                0,    0.03490658504,99853.85894775391
37.59,       -0.26522937,        0.36346247,-9.842956620000001,                 0,     0.01745329252,     0.03490658504, 99853.36303710938
37.64,      -0.28487599,       0.38310909,      -9.86260324,    0.03490658504,    0.01745329252,    0.05235987756,99852.85186767578
37.71,       -0.2946993,       0.37328578,      -9.86260324,    0.01745329252,    0.01745329252,    0.05235987756,99852.34832763672
37.76,       -0.27505268,        0.36346247,-9.852779930000001,                 0,     0.03490658504,     0.05235987756, 99851.82189941406
37.84,      -0.26522937,       0.36346247,      -9.89207317,    0.01745329252,    0.01745329252,    0.05235987756,99851.32598876953
37.91,      -0.26522937,       0.37328578,      -9.86260324,    0.01745329252,                0,    0.03490658504,99850.81481933594
37.97,        -0.2946993,        0.37328578,-9.842956620000001,                 0,     0.01745329252,     0.05235987756, 99850.31890869141
38.04,      -0.27505268,       0.38310909,      -9.86260324,    0.01745329252,    0.01745329252,    0.03490658504,99849.80010986328
38.12,       -0.2946993,       0.38310909,      -9.86260324,    0.03490658504,    0.03490658504,    0.05235987756,99849.28894042969
38.23,      -0.2946993,      0.36346247,     -9.88224986,               0,   0.01745329252,   0.06981317008,99848.7548828125
38.28,      -0.27505268,       0.36346247,      -9.86260324,    0.03490658504,    0.01745329252,    0.05235987756,99848.25897216797
38.32,      -0.26522937,       0.36346247,      -9.86260324,    0.01745329252,                0,    0.05235987756,99847.74780273438
38.41,      -0.28487599,       0.37328578,      -9.87242655,    0.01745329252,    0.01745329252,    0.06981317008,99847.23663330078
38.45,       -0.28487599,         0.3929324,-9.852779930000001,     0.01745329252,                 0,     0.05235987756, 99846.71783447266
38.54,      -0.27505268,       0.37328578,      -9.89207317,    0.01745329252,                0,    0.05235987756,99846.20666503906
38.63,      -0.27505268,       0.35363916,      -9.88224986,    0.01745329252,                0,    0.05235987756,99845.69549560547
38.7,       -0.2946993,       0.35363916,      -9.88224986,                0,                0,    0.05235987756,99845.17669677734
38.77,      -0.26522937,       0.37328578,      -9.88224986,                0,                0,    0.03490658504,99844.65789794922
38.84,      -0.28487599,        0.3929324,      -9.86260324,    0.01745329252,                0,    0.03490658504,99844.13909912109
38.92,      -0.27505268,       0.38310909,      -9.89207317,    0.01745329252,                0,    0.05235987756,99843.62030029297
39.02,      -0.28487599,       0.36346247,      -9.89207317,                0,                0,    0.05235987756,99843.10913085938
39.12,      -0.28487599,       0.38310909,      -9.88224986,                0,                0,    0.03490658504,99842.56744384766
39.19,      -0.28487599,       0.38310909,      -9.89207317,                0,                0,    0.03490658504,99842.06390380859
39.3,      -0.27505268,       0.36346247,      -9.88224986,   -0.01745329252,                0,    0.05235987756,99841.54510498047
39.36,      -0.28487599,       0.36346247,      -9.89207317,   -0.01745329252,                0,    0.05235987756,99841.01867675781
39.46,      -0.27505268,       0.38310909,      -9.87242655,                0,                0,    0.05235987756,99840.49224853516
39.51,      -0.2946993,      0.36346247,     -9.89207317,               0,               0,   0.05235987756,99839.9658203125
39.6,      -0.27505268,       0.37328578,      -9.89207317,   -0.01745329252,   -0.01745329252,    0.03490658504,99839.43939208984
39.66,      -0.26522937,       0.37328578,      -9.90189648,   -0.01745329252,   -0.01745329252,    0.05235987756,99838.92059326172
39.74,       -0.2946993,       0.36346247,      -9.90189648,   -0.01745329252,   -0.03490658504,    0.05235987756,99838.40179443359
39.83,      -0.27505268,       0.36346247,      -9.89207317,                0,   -0.03490658504,    0.03490658504,99837.87536621094
39.9,      -0.27505268,       0.37328578,      -9.90189648,   -0.01745329252,   -0.03490658504,    0.05235987756,99837.35656738281
39.98,      -0.27505268,       0.34381585,      -9.89207317,   -0.03490658504,                0,    0.01745329252,99836.83776855469
40.05,      -0.27505268,        0.3929324,      -9.90189648,                0,                0,    0.01745329252,99836.29608154297
40.13,       -0.28487599,        0.37328578,-9.921543099999999,    -0.03490658504,    -0.01745329252,     0.05235987756, 99835.76202392578
40.19,      -0.25540606,       0.36346247,      -9.90189648,   -0.01745329252,   -0.03490658504,    0.05235987756,99835.25085449219
40.26,      -0.28487599,       0.35363916,      -9.90189648,   -0.05235987756,   -0.01745329252,    0.05235987756,99834.70916748047
40.33,       -0.27505268,        0.38310909,-9.911719789999999,    -0.03490658504,    -0.01745329252,     0.05235987756, 99834.18273925781
40.41,       -0.26522937,        0.38310909,-9.911719789999999,    -0.03490658504,    -0.03490658504,     0.01745329252, 99833.65631103516
40.49,       -0.27505268,        0.38310909,-9.911719789999999,                 0,    -0.01745329252,     0.03490658504, 99833.11462402344
40.57,      -0.27505268,       0.37328578,      -9.89207317,   -0.01745329252,   -0.01745329252,    0.05235987756,99832.58819580078
40.62,       -0.27505268,        0.37328578,-9.911719789999999,    -0.01745329252,    -0.01745329252,     0.03490658504, 99832.05413818359
40.7,       -0.28487599,        0.37328578,-9.911719789999999,    -0.01745329252,    -0.01745329252,     0.03490658504, 99831.52008056641
40.74,      -0.27505268,       0.36346247,      -9.90189648,                0,                0,    0.05235987756,99830.98602294922
40.81,      -0.26522937,       0.37328578,      -9.88224986,                0,                0,    0.05235987756,99830.43670654297
40.89,       -0.2946993,       0.36346247,      -9.90189648,                0,   -0.01745329252,    0.05235987756,99829.89501953125
40.96,       -0.27505268,        0.36346247,-9.911719789999999,    -0.01745329252,                 0,     0.03490658504, 99829.35333251953
41.03,      -0.28487599,       0.37328578,      -9.90189648,                0,                0,    0.05235987756,99828.83453369141
41.09,      -0.27505268,       0.36346247,      -9.90189648,                0,                0,    0.03490658504,99828.29284667969
41.16,      -0.26522937,        0.3929324,      -9.88224986,                0,                0,    0.03490658504,99827.74353027344
41.23,      -0.26522937,       0.37328578,      -9.90189648,                0,                0,    0.05235987756,99827.20947265625
41.31,       -0.28487599,        0.37328578,-9.921543099999999,                 0,                 0,     0.05235987756, 99826.66778564453
41.38,      -0.27505268,       0.37328578,      -9.89207317,    0.01745329252,                0,    0.03490658504,99826.11083984375
41.45,       -0.27505268,        0.38310909,-9.921543099999999,                 0,                 0,     0.03490658504, 99825.57678222656
41.51,      -0.28487599,       0.36346247,      -9.88224986,                0,                0,    0.03490658504,99825.01983642578
41.57,       -0.2946993,       0.36346247,      -9.90189648,                0,                0,    0.05235987756,99824.49340820312
41.65,       -0.27505268,         0.3929324,-9.921543099999999,                 0,                 0,     0.03490658504, 99823.93646240234
41.73,      -0.26522937,       0.37328578,      -9.88224986,                0,                0,    0.03490658504,99823.39477539062
41.8,      -0.28487599,       0.37328578,      -9.88224986,    0.01745329252,                0,    0.05235987756,99822.83782958984
41.87,       -0.2946993,       0.37328578,      -9.88224986,                0,                0,    0.03490658504,99822.28851318359
41.95,       -0.2946993,       0.37328578,      -9.90189648,                0,                0,    0.03490658504,99821.73156738281
42.02,      -0.26522937,       0.37328578,      -9.89207317,                0,                0,    0.05235987756,99821.18225097656
42.09,      -0.27505268,       0.36346247,      -9.89207317,                0,                0,    0.05235987756,99820.62530517578
42.17,    -0.27505268,     0.36346247,    -9.88224986,              0, -0.01745329252,  0.05235987756,99820.068359375
42.25,      -0.27505268,       0.38310909,      -9.87242655,                0,                0,    0.05235987756,99819.53430175781
42.33,      -0.26522937,       0.37328578,      -9.88224986,                0,                0,    0.01745329252,99818.96209716797
42.39,       -0.2946993,        0.3929324,      -9.86260324,                0,                0,    0.05235987756,99818.39752197266
42.48,      -0.28487599,       0.35363916,      -9.86260324,    0.01745329252,                0,    0.05235987756,99817.84820556641
42.53,      -0.27505268,       0.37328578,      -9.87242655,    0.03490658504,                0,    0.05235987756,99817.28363037109
42.57,      -0.27505268,       0.36346247,      -9.86260324,    0.01745329252,                0,    0.05235987756,99816.74194335938
42.65,      -0.30452261,       0.38310909,      -9.87242655,    0.01745329252,                0,    0.05235987756,99816.16973876953
42.73,       -0.2946993,       0.37328578,      -9.88224986,                0,                0,    0.03490658504,99815.62042236328
42.82,       -0.2946993,       0.36346247,      -9.87242655,                0,                0,    0.03490658504,99815.05584716797
42.9,      -0.28487599,       0.37328578,      -9.88224986,                0,                0,    0.03490658504,99814.49890136719
42.99,      -0.28487599,       0.37328578,      -9.86260324,                0,    0.01745329252,    0.03490658504,99813.93432617188
43.07,       -0.27505268,        0.36346247,-9.842956620000001,                 0,     0.01745329252,     0.05235987756, 99813.36975097656
43.16,      -0.27505268,       0.37328578,      -9.87242655,                0,    0.01745329252,    0.01745329252,99812.82043457031
43.24,       -0.27505268,        0.36346247,-9.833133310000001,                 0,                 0,     0.05235987756, 99812.26348876953
43.32,      -0.27505268,       0.36346247,      -9.87242655,                0,    0.01745329252,    0.03490658504,99811.70654296875
43.42,        -0.2946993,        0.36346247,-9.842956620000001,                 0,     0.01745329252,     0.03490658504, 99811.14196777344
43.47,      -0.30452261,       0.38310909,      -9.86260324,                0,    0.01745329252,    0.03490658504,99810.58502197266
43.56,      -0.28487599,       0.36346247,      -9.86260324,                0,    0.01745329252,    0.05235987756,99810.01281738281
43.66,      -0.25540606,       0.38310909,      -9.86260324,                0,                0,    0.05235987756,99809.47113037109
43.71,       -0.2946993,       0.36346247,      -9.86260324,                0,                0,    0.03490658504,99808.89129638672
43.79,       -0.28487599,        0.38310909,-9.852779930000001,                 0,     0.01745329252,     0.03490658504, 99808.34197998047
43.87,       -0.27505268,        0.36346247,-9.833133310000001,                 0,     0.01745329252,     0.05235987756, 99807.76214599609
43.95,       -0.26522937,        0.38310909,-9.842956620000001,                 0,     0.01745329252,     0.05235987756, 99807.20520019531
44.04,        -0.2946993,        0.38310909,-9.852779930000001,                 0,                 0,     0.03490658504, 99806.63299560547
44.11,       -0.27505268,         0.3929324,-9.823309999999999,                 0,                 0,     0.03490658504, 99806.07604980469
44.2,       -0.26522937,        0.37328578,-9.842956620000001,    -0.01745329252,     0.01745329252,     0.03490658504, 99805.51910400391
44.27,       -0.25540606,        0.38310909,-9.852779930000001,                 0,     0.03490658504,     0.05235987756, 99804.94689941406
44.35,       -0.26522937,        0.37328578,-9.852779930000001,                 0,     0.01745329252,     0.03490658504, 99804.38232421875
44.45,       -0.27505268,        0.36346247,-9.833133310000001,                 0,     0.01745329252,     0.03490658504, 99803.81011962891
44.5,       -0.28487599,        0.37328578,-9.842956620000001,                 0,                 0,     0.03490658504, 99803.26080322266
44.57,       -0.27505268,        0.38310909,-9.852779930000001,    -0.01745329252,                 0,     0.03490658504, 99802.69622802734
44.62,        -0.2946993,        0.38310909,-9.852779930000001,    -0.01745329252,     0.01745329252,     0.05235987756, 99802.13928222656
44.71,       -0.2946993,       0.36346247,      -9.87242655,                0,                0,    0.03490658504,99801.55944824219
44.8,       -0.27505268,        0.37328578,-9.842956620000001,                 0,                 0,     0.05235987756, 99801.00250244141
44.89,       -0.2946993,       0.37328578,      -9.86260324,                0,                0,    0.05235987756,99800.43792724609
44.94,        -0.2946993,        0.37328578,-9.852779930000001,                 0,                 0,     0.03490658504, 99799.86572265625
45.04,      -0.27505268,       0.35363916,      -9.87242655,                0,                0,    0.03490658504,99799.30114746094
45.08,       -0.2946993,       0.37328578,      -9.86260324,                0,                0,    0.05235987756,99798.74420166016
45.15,       -0.30452261,        0.37328578,-9.852779930000001,                 0,    -0.03490658504,     0.05235987756, 99798.16436767578
45.24,      -0.26522937,       0.37328578,      -9.86260324,                0,   -0.01745329252,    0.03490658504,99797.59979248047
45.32,      -0.28487599,       0.37328578,      -9.87242655,                0,   -0.03490658504,    0.03490658504,99797.01995849609
45.4,      -0.27505268,       0.37328578,      -9.88224986,   -0.01745329252,   -0.01745329252,    0.05235987756,99796.45538330078
45.49,       -0.27505268,        0.38310909,-9.852779930000001,    -0.01745329252,    -0.01745329252,     0.05235987756, 99795.88317871094
45.58,       -0.2946993,        0.3929324,      -9.86260324,                0,   -0.03490658504,    0.03490658504,99795.31097412109
45.63,      -0.26522937,       0.38310909,      -9.87242655,                0,   -0.01745329252,    0.03490658504,99794.74639892578
45.71,      -0.28487599,       0.37328578,      -9.87242655,                0,   -0.01745329252,    0.05235987756,99794.16656494141
45.79,      -0.28487599,       0.38310909,      -9.89207317,                0,   -0.01745329252,    0.03490658504,99793.58673095703
45.88,      -0.26522937,       0.37328578,      -9.86260324,                0,   -0.01745329252,    0.05235987756,99793.02978515625
45.98,      -0.28487599,       0.35363916,      -9.87242655,                0,   -0.01745329252,    0.05235987756,99792.45758056641
46.07,      -0.26522937,       0.36346247,      -9.86260324,                0,   -0.01745329252,    0.03490658504,99791.87774658203
46.14,      -0.28487599,       0.37328578,      -9.86260324,                0,   -0.01745329252,    0.05235987756,99791.29028320312
46.23,       -0.2946993,       0.37328578,      -9.88224986,                0,   -0.01745329252,    0.06981317008,99790.72570800781
46.31,     -0.26522937,      0.37328578,     -9.86260324,               0,  -0.01745329252,   0.05235987756,99790.1611328125
46.39,      -0.27505268,       0.38310909,      -9.87242655,    0.01745329252,   -0.01745329252,    0.03490658504,99789.58129882812
46.47,      -0.28487599,       0.35363916,      -9.88224986,    0.01745329252,                0,    0.05235987756,99789.00146484375
46.55,      -0.28487599,       0.36346247,      -9.87242655,    0.01745329252,                0,    0.03490658504,99788.42163085938
46.64,      -0.27505268,       0.36346247,      -9.89207317,                0,   -0.01745329252,    0.05235987756,99787.84942626953
46.73,      -0.26522937,        0.3929324,      -9.87242655,    0.01745329252,                0,    0.05235987756,99787.27722167969
46.78,      -0.28487599,       0.36346247,      -9.88224986,                0,                0,    0.03490658504,99786.69738769531
46.87,      -0.26522937,       0.37328578,      -9.87242655,                0,                0,    0.05235987756,99786.10992431641
46.96,     -0.28487599,      0.36346247,     -9.88224986,               0,               0,   0.03490658504,99785.5224609375
47.04,      -0.25540606,       0.37328578,      -9.89207317,                0,    0.01745329252,    0.05235987756,99784.93499755859
47.13,      -0.27505268,       0.36346247,      -9.88224986,                0,    0.01745329252,    0.05235987756,99784.37805175781
47.21,      -0.26522937,       0.36346247,      -9.89207317,                0,    0.01745329252,    0.05235987756,99783.79058837891
47.27,      -0.28487599,       0.36346247,      -9.88224986,    0.01745329252,                0,    0.03490658504,99783.21075439453
47.33,       -0.2946993,       0.37328578,      -9.88224986,                0,                0,    0.05235987756,99782.63092041016
47.4,       -0.2946993,       0.38310909,      -9.87242655,                0,    0.01745329252,    0.05235987756,99782.04345703125
47.46,      -0.26522937,       0.37328578,      -9.89207317,    0.01745329252,                0,    0.05235987756,99781.47888183594
47.53,     -0.28487599,      0.38310909,     -9.89207317,               0,               0,   0.03490658504,99780.8837890625
47.61,      -0.27505268,       0.37328578,      -9.87242655,                0,                0,    0.05235987756,99780.30395507812
47.66,       -0.2946993,       0.38310909,      -9.88224986,                0,                0,    0.03490658504,99779.72412109375
47.75,      -0.28487599,       0.35363916,      -9.87242655,                0,                0,    0.06981317008,99779.12902832031
47.84,      -0.26522937,       0.37328578,      -9.88224986,                0,                0,    0.05235987756,99778.54919433594
47.92,      -0.27505268,       0.35363916,      -9.87242655,                0,                0,    0.05235987756,99777.96173095703
48.01,      -0.27505268,       0.38310909,      -9.88224986,                0,                0,    0.05235987756,99777.37426757812
48.08,      -0.28487599,       0.36346247,      -9.88224986,                0,                0,    0.05235987756,99776.78680419922
48.15,       -0.2946993,       0.38310909,      -9.88224986,                0,                0,    0.03490658504,99776.18408203125
48.25,      -0.28487599,       0.37328578,      -9.89207317,                0,   -0.01745329252,    0.05235987756,99775.60424804688
48.34,      -0.27505268,       0.35363916,      -9.88224986,   -0.01745329252,   -0.01745329252,    0.03490658504,99775.01678466797
48.39,  -0.28487599,   0.37328578,  -9.88224986,            0,            0,0.03490658504,99774.4140625
48.48,      -0.26522937,       0.37328578,      -9.88224986,                0,                0,    0.05235987756,99773.81896972656
48.57,      -0.27505268,        0.3929324,      -9.87242655,   -0.01745329252,                0,    0.05235987756,99773.23150634766
48.66,      -0.28487599,       0.38310909,      -9.89207317,   -0.03490658504,                0,    0.03490658504,99772.65167236328
48.71,      -0.28487599,       0.37328578,      -9.88224986,   -0.01745329252,   -0.01745329252,    0.06981317008,99772.06420898438
48.79,      -0.28487599,       0.36346247,      -9.88224986,   -0.01745329252,   -0.01745329252,    0.06981317008,99771.45385742188
48.9,      -0.28487599,       0.35363916,      -9.87242655,                0,   -0.01745329252,    0.05235987756,99770.86639404297
48.98,      -0.28487599,       0.35363916,      -9.90189648,                0,   -0.01745329252,    0.03490658504,99770.27130126953
49.05,      -0.27505268,       0.35363916,      -9.89207317,   -0.01745329252,                0,    0.05235987756,99769.68383789062
49.15,      -0.26522937,       0.36346247,      -9.87242655,                0,                0,    0.03490658504,99769.08111572266
49.24,      -0.28487599,       0.37328578,      -9.86260324,   -0.03490658504,   -0.01745329252,    0.06981317008,99768.46313476562
49.32,      -0.27505268,       0.37328578,      -9.89207317,   -0.01745329252,                0,    0.05235987756,99767.86804199219
49.39,      -0.27505268,       0.38310909,      -9.86260324,   -0.01745329252,                0,    0.05235987756,99767.25769042969
49.46,      -0.28487599,       0.38310909,      -9.88224986,                0,                0,    0.05235987756,99766.66259765625
49.56,      -0.28487599,       0.36346247,      -9.86260324,                0,                0,    0.05235987756,99766.06750488281
49.61,      -0.28487599,       0.38310909,      -9.87242655,                0,                0,    0.05235987756,99765.47241210938
49.71,      -0.28487599,       0.37328578,      -9.86260324,                0,                0,    0.05235987756,99764.86968994141
49.8,      -0.27505268,       0.37328578,      -9.87242655,   -0.01745329252,   -0.01745329252,    0.06981317008,99764.25933837891
49.87,   -0.28487599,    0.37328578,   -9.86260324,             0,-0.01745329252, 0.05235987756,  99763.671875
49.96,     -0.28487599,      0.38310909,     -9.87242655,               0,               0,   0.05235987756,99763.0615234375
50.05,     -0.2946993,     0.37328578,    -9.86260324,              0,              0,  0.05235987756,99762.451171875
50.13,      -0.28487599,       0.37328578,      -9.87242655,                0,    0.01745329252,    0.05235987756,99761.83319091797
50.19,      -0.28487599,       0.37328578,      -9.87242655,                0,    0.01745329252,    0.06981317008,99761.22283935547
50.27,       -0.2946993,       0.37328578,      -9.88224986,    0.01745329252,                0,    0.06981317008,99760.61248779297
50.37,        -0.2946993,        0.37328578,-9.842956620000001,                 0,                 0,     0.03490658504,   99760.009765625
50.43,      -0.27505268,       0.37328578,      -9.87242655,                0,                0,    0.06981317008,99759.39178466797
50.51,  -0.28487599,   0.35363916,  -9.88224986,            0,0.01745329252,0.05235987756,99758.7890625
50.61,      -0.28487599,       0.38310909,      -9.87242655,    0.01745329252,                0,    0.05235987756,99758.17108154297
50.67,    -0.28487599,     0.37328578,    -9.87242655,  0.01745329252,              0,  0.05235987756,99757.568359375
50.72,        -0.2946993,        0.38310909,-9.852779930000001,     0.01745329252,     0.01745329252,     0.05235987756, 99756.97326660156
50.81,      -0.27505268,       0.36346247,      -9.88224986,    0.01745329252,    0.03490658504,    0.05235987756,99756.35528564453
50.85,       -0.27505268,        0.36346247,-9.842956620000001,                 0,                 0,     0.05235987756, 99755.74493408203
50.93,      -0.26522937,       0.38310909,      -9.89207317,    0.01745329252,    0.01745329252,    0.06981317008,99755.14221191406
50.99,      -0.26522937,       0.37328578,      -9.87242655,    0.01745329252,                0,    0.05235987756,99754.53186035156
51.08,        -0.2946993,        0.37328578,-9.852779930000001,     0.01745329252,     0.03490658504,     0.05235987756, 99753.91387939453
51.15,      -0.26522937,       0.37328578,      -9.86260324,    0.01745329252,    0.01745329252,    0.05235987756,99753.28826904297
51.22,    -0.26522937,     0.37328578,    -9.88224986,              0,              0,  0.03490658504,99752.685546875
51.3,      -0.28487599,       0.38310909,      -9.86260324,                0,                0,    0.05235987756,99752.08282470703
51.37,      -0.28487599,       0.36346247,      -9.86260324,    0.01745329252,                0,    0.05235987756,99751.47247314453
51.46,     -0.27505268,      0.35363916,     -9.88224986,               0,               0,   0.03490658504,99750.8544921875
51.54,    -0.28487599,     0.37328578,    -9.88224986,              0,              0,  0.03490658504,99750.244140625
51.63,     -0.28487599,      0.35363916,     -9.87242655,  -0.01745329252,               0,   0.03490658504,99749.6337890625
51.71,      -0.28487599,       0.36346247,      -9.87242655,                0,                0,    0.05235987756,99749.00817871094
51.8,      -0.26522937,       0.36346247,      -9.88224986,                0,                0,    0.05235987756,99748.39019775391
51.83,      -0.25540606,       0.38310909,      -9.86260324,   -0.01745329252,                0,    0.05235987756,99747.79510498047
51.92,      -0.30452261,       0.36346247,      -9.87242655,                0,   -0.01745329252,    0.05235987756,99747.16186523438
51.99,      -0.26522937,       0.38310909,      -9.87242655,                0,   -0.03490658504,    0.05235987756,99746.55151367188
52.07,      -0.25540606,       0.38310909,      -9.89207317,                0,   -0.03490658504,    0.03490658504,99745.92590332031
52.17,      -0.27505268,       0.36346247,      -9.86260324,                0,   -0.03490658504,    0.05235987756,99745.33081054688
52.26,      -0.26522937,       0.37328578,      -9.86260324,                0,   -0.03490658504,    0.05235987756,99744.70520019531
52.31,      -0.28487599,       0.37328578,      -9.87242655,                0,   -0.01745329252,    0.05235987756,99744.07958984375
52.37,      -0.28487599,       0.38310909,      -9.87242655,   -0.01745329252,   -0.01745329252,    0.03490658504,99743.46923828125
52.46,      -0.26522937,       0.38310909,      -9.87242655,                0,   -0.03490658504,    0.06981317008,99742.84362792969
52.53,      -0.27505268,       0.37328578,      -9.86260324,   -0.01745329252,   -0.01745329252,    0.06981317008,99742.21801757812
52.62,      -0.28487599,       0.36346247,      -9.86260324,                0,   -0.01745329252,    0.05235987756,99741.59240722656
52.71,      -0.28487599,       0.37328578,      -9.88224986,                0,   -0.01745329252,    0.05235987756,99740.98968505859
52.8,     -0.27505268,       0.3929324,     -9.88224986,               0,  -0.01745329252,   0.05235987756,99740.3564453125
52.9,      -0.28487599,       0.38310909,      -9.87242655,                0,   -0.01745329252,    0.06981317008,99739.73083496094
53.01,      -0.27505268,       0.36346247,      -9.88224986,                0,   -0.01745329252,    0.06981317008,99739.12811279297
53.07,      -0.27505268,       0.36346247,      -9.87242655,                0,                0,    0.05235987756,99738.50250244141
53.16,      -0.27505268,       0.36346247,      -9.86260324,   -0.01745329252,                0,    0.03490658504,99737.87689208984
53.25,       -0.2946993,       0.38310909,      -9.87242655,   -0.01745329252,                0,    0.06981317008,99737.25128173828
53.31,      -0.26522937,       0.36346247,      -9.87242655,                0,                0,    0.05235987756,99736.62567138672
53.4,      -0.28487599,       0.37328578,      -9.87242655,                0,                0,    0.06981317008,99736.00006103516
53.5,      -0.28487599,       0.36346247,      -9.88224986,                0,                0,    0.05235987756,99735.36682128906
53.6,      -0.2946993,      0.37328578,     -9.88224986,               0,               0,   0.06981317008,99734.7412109375
53.7,      -0.27505268,       0.37328578,      -9.86260324,   -0.01745329252,                0,    0.06981317008,99734.12322998047
53.79,      -0.27505268,       0.37328578,      -9.87242655,                0,    0.01745329252,    0.05235987756,99733.48999023438
53.88,      -0.28487599,       0.37328578,      -9.86260324,                0,                0,    0.06981317008,99732.84912109375
53.97,       -0.27505268,        0.36346247,-9.852779930000001,                 0,     0.01745329252,     0.03490658504, 99732.21588134766
54.06,      -0.27505268,       0.37328578,      -9.87242655,                0,    0.01745329252,    0.06981317008,99731.58264160156
54.15,       -0.27505268,        0.37328578,-9.842956620000001,                 0,     0.01745329252,     0.03490658504, 99730.96466064453
54.25,      -0.25540606,       0.37328578,      -9.87242655,                0,    0.01745329252,    0.05235987756,99730.32379150391
54.31,      -0.28487599,       0.37328578,      -9.87242655,                0,                0,    0.06981317008,99729.70581054688
54.41,       -0.2946993,       0.37328578,      -9.86260324,                0,    0.01745329252,    0.06981317008,99729.06494140625
54.5,      -0.27505268,       0.38310909,      -9.86260324,                0,    0.03490658504,    0.05235987756,99728.43933105469
54.56,       -0.2946993,       0.37328578,      -9.87242655,                0,    0.01745329252,    0.05235987756,99727.81372070312
54.65,       -0.28487599,        0.35363916,-9.852779930000001,                 0,     0.01745329252,     0.05235987756,  99727.1728515625
54.74,      -0.28487599,        0.3929324,      -9.87242655,   -0.01745329252,    0.01745329252,    0.05235987756,99726.54724121094
54.81,       -0.28487599,        0.37328578,-9.852779930000001,     0.01745329252,     0.03490658504,     0.06981317008, 99725.91400146484
54.91,      -0.27505268,       0.36346247,      -9.86260324,                0,    0.03490658504,    0.03490658504,99725.28076171875
55,      -0.26522937,       0.37328578,      -9.86260324,                0,    0.01745329252,    0.05235987756,99724.63989257812
55.09,      -0.26522937,       0.36346247,      -9.86260324,                0,    0.01745329252,    0.05235987756,99724.02191162109
55.19,       -0.27505268,         0.3929324,-9.852779930000001,                 0,     0.01745329252,     0.06981317008, 99723.37341308594
55.27,      -0.28487599,       0.36346247,      -9.88224986,                0,                0,    0.06981317008,99722.74017333984
55.34,      -0.27505268,       0.37328578,      -9.86260324,                0,                0,    0.03490658504,99722.10693359375
55.44,      -0.27505268,       0.37328578,      -9.90189648,                0,                0,    0.06981317008,99721.48132324219
55.48,      -0.25540606,       0.38310909,      -9.87242655,                0,                0,    0.03490658504,99720.83282470703
55.55,       -0.2946993,       0.37328578,      -9.88224986,                0,                0,    0.06981317008,99720.19958496094
55.61,      -0.28487599,       0.36346247,      -9.87242655,    0.03490658504,                0,    0.03490658504,99719.57397460938
55.7,      -0.25540606,       0.38310909,      -9.89207317,    0.03490658504,                0,    0.05235987756,99718.94073486328
55.78,      -0.28487599,       0.37328578,      -9.86260324,                0,   -0.01745329252,    0.06981317008,99718.29223632812
55.86,      -0.28487599,       0.36346247,      -9.87242655,                0,   -0.01745329252,    0.05235987756,99717.68188476562
55.94,      -0.26522937,       0.36346247,      -9.87242655,    0.01745329252,   -0.03490658504,    0.05235987756,99717.03338623047
56.02,      -0.28487599,       0.36346247,      -9.89207317,    0.03490658504,   -0.01745329252,    0.05235987756,99716.40014648438
56.11,      -0.28487599,       0.35363916,      -9.88224986,    0.01745329252,   -0.01745329252,    0.05235987756,99715.75927734375
56.21,      -0.26522937,       0.37328578,      -9.88224986,    0.01745329252,   -0.01745329252,    0.05235987756,99715.11840820312
56.31,     -0.28487599,      0.37328578,     -9.90189648,               0,  -0.03490658504,   0.05235987756,99714.4775390625
56.4,      -0.28487599,       0.37328578,      -9.89207317,    0.01745329252,   -0.03490658504,    0.05235987756,99713.84429931641
56.49,       -0.2946993,       0.37328578,      -9.89207317,    0.01745329252,   -0.01745329252,    0.06981317008,99713.20343017578
56.6,      -0.27505268,       0.38310909,      -9.89207317,                0,   -0.03490658504,    0.05235987756,99712.55493164062
56.67,      -0.27505268,       0.38310909,      -9.88224986,                0,   -0.03490658504,    0.05235987756,99711.90643310547
56.76,      -0.28487599,       0.37328578,      -9.88224986,                0,   -0.03490658504,    0.05235987756,99711.27319335938
56.83,      -0.27505268,       0.36346247,      -9.89207317,                0,   -0.01745329252,    0.06981317008,99710.62469482422
56.9,       -0.2946993,       0.37328578,      -9.88224986,                0,   -0.03490658504,    0.06981317008,99709.96856689453
56.98,      -0.28487599,       0.36346247,      -9.88224986,                0,   -0.03490658504,    0.05235987756,99709.32769775391
57.08,      -0.28487599,       0.37328578,      -9.87242655,                0,   -0.03490658504,    0.06981317008,99708.67919921875
57.13,      -0.28487599,       0.36346247,      -9.89207317,                0,   -0.01745329252,    0.06981317008,99708.02307128906
57.22,      -0.27505268,       0.36346247,      -9.87242655,                0,   -0.01745329252,    0.05235987756,99707.38220214844
57.31,      -0.27505268,       0.36346247,      -9.88224986,   -0.01745329252,   -0.01745329252,    0.06981317008,99706.71844482422
57.37,      -0.27505268,       0.37328578,      -9.88224986,   -0.01745329252,   -0.01745329252,    0.06981317008,99706.06994628906
57.48,     -0.27505268,      0.36346247,     -9.89207317,  -0.01745329252,  -0.01745329252,   0.06981317008,99705.4443359375
57.55,       -0.2946993,       0.36346247,      -9.89207317,                0,   -0.03490658504,    0.05235987756,99704.79583740234
57.64,      -0.28487599,       0.37328578,      -9.87242655,   -0.01745329252,                0,    0.05235987756,99704.13208007812
57.72,      -0.27505268,       0.36346247,      -9.87242655,   -0.01745329252,   -0.01745329252,    0.06981317008,99703.46832275391
57.81,      -0.26522937,       0.38310909,      -9.88224986,   -0.01745329252,                0,    0.06981317008,99702.83508300781
57.9,      -0.27505268,       0.38310909,      -9.87242655,   -0.01745329252,                0,    0.05235987756,99702.17132568359
57.93,      -0.27505268,       0.37328578,      -9.88224986,   -0.01745329252,                0,    0.06981317008,99701.52282714844
58.01,      -0.28487599,       0.34381585,      -9.87242655,                0,                0,    0.05235987756,99700.86669921875
58.1,      -0.27505268,       0.38310909,      -9.87242655,                0,                0,    0.05235987756,99700.21820068359
58.18,      -0.26522937,       0.37328578,      -9.88224986,   -0.01745329252,                0,    0.05235987756,99699.53918457031
58.26,      -0.27505268,       0.38310909,      -9.87242655,                0,    0.03490658504,    0.03490658504,99698.88305664062
58.36,      -0.27505268,       0.37328578,      -9.88224986,                0,                0,    0.05235987756,99698.23455810547
58.42,      -0.27505268,       0.38310909,      -9.86260324,                0,                0,    0.06981317008,99697.55554199219
58.5,      -0.28487599,       0.38310909,      -9.88224986,   -0.01745329252,                0,    0.06981317008,99696.90704345703
58.58,      -0.27505268,       0.36346247,      -9.87242655,                0,                0,    0.06981317008,99696.22802734375
58.67,       -0.26522937,        0.38310909,-9.852779930000001,    -0.01745329252,                 0,     0.06981317008, 99695.57189941406
58.75,      -0.27505268,       0.37328578,      -9.88224986,                0,                0,    0.06981317008,99694.92340087891
58.83,      -0.26522937,       0.38310909,      -9.87242655,                0,                0,    0.06981317008,99694.25201416016
58.91,       -0.2946993,       0.38310909,      -9.87242655,                0,                0,    0.05235987756,99693.58062744141
58.98,      -0.27505268,       0.37328578,      -9.87242655,   -0.01745329252,    0.03490658504,    0.05235987756,99692.92449951172
59.06,      -0.28487599,       0.35363916,      -9.86260324,                0,    0.03490658504,    0.05235987756,99692.26837158203
59.13,      -0.27505268,       0.37328578,      -9.86260324,                0,    0.01745329252,    0.05235987756,99691.60461425781
59.22,       -0.2946993,       0.36346247,      -9.88224986,                0,                0,    0.06981317008,99690.94085693359
59.3,      -0.27505268,       0.37328578,      -9.87242655,   -0.01745329252,    0.01745329252,    0.06981317008,99690.28472900391
59.37,      -0.26522937,       0.37328578,      -9.87242655,                0,    0.01745329252,    0.05235987756,99689.62097167969
59.47,      -0.26522937,       0.37328578,      -9.86260324,                0,    0.03490658504,    0.05235987756,99688.94195556641
59.56,      -0.25540606,       0.35363916,      -9.89207317,                0,    0.03490658504,    0.06981317008,99688.30108642578
59.65,      -0.26522937,       0.37328578,      -9.86260324,                0,    0.01745329252,    0.06981317008,99687.62969970703
59.71,      -0.28487599,       0.37328578,      -9.86260324,                0,                0,    0.05235987756,99686.98883056641
59.78,      -0.27505268,        0.3929324,      -9.87242655,    0.01745329252,                0,    0.06981317008,99686.31744384766
59.87,       -0.28487599,        0.37328578,-9.852779930000001,     0.01745329252,                 0,     0.05235987756, 99685.64605712891
59.95,       -0.28487599,        0.36346247,-9.852779930000001,     0.01745329252,                 0,     0.05235987756, 99684.97467041016
60.04,       -0.26522937,        0.36346247,-9.852779930000001,     0.01745329252,                 0,     0.06981317008, 99684.31091308594
60.11,      -0.27505268,       0.38310909,      -9.86260324,    0.03490658504,   -0.01745329252,    0.06981317008,99683.63952636719
60.21,      -0.26522937,        0.3929324,      -9.88224986,    0.01745329252,                0,    0.06981317008,99682.95288085938
60.29,      -0.27505268,       0.36346247,      -9.87242655,    0.01745329252,   -0.01745329252,    0.05235987756,99682.28912353516
60.38,      -0.27505268,       0.37328578,      -9.86260324,    0.01745329252,   -0.01745329252,    0.05235987756,99681.62536621094
60.46,       -0.2946993,       0.37328578,      -9.87242655,    0.01745329252,   -0.01745329252,    0.05235987756,99680.96160888672
60.55,      -0.28487599,       0.36346247,      -9.87242655,    0.01745329252,   -0.03490658504,    0.05235987756,99680.28259277344
60.64,      -0.27505268,       0.38310909,      -9.87242655,    0.01745329252,   -0.01745329252,    0.05235987756,99679.60357666016
60.69,      -0.27505268,       0.38310909,      -9.87242655,                0,   -0.01745329252,    0.05235987756,99678.93218994141
60.78,      -0.26522937,       0.38310909,      -9.86260324,                0,   -0.03490658504,    0.06981317008,99678.26080322266
60.86,      -0.27505268,       0.35363916,      -9.87242655,                0,   -0.01745329252,    0.05235987756,99677.58941650391
60.94,      -0.25540606,       0.38310909,      -9.86260324,                0,   -0.03490658504,    0.06981317008,99676.92565917969
61,      -0.27505268,       0.36346247,      -9.86260324,    0.01745329252,   -0.03490658504,    0.06981317008,99676.25427246094
61.06,      -0.27505268,       0.36346247,      -9.87242655,    0.01745329252,   -0.01745329252,    0.05235987756,99675.59051513672
61.14,      -0.27505268,       0.36346247,      -9.86260324,                0,   -0.01745329252,    0.05235987756,99674.90386962891
61.22,      -0.26522937,       0.37328578,      -9.86260324,    0.01745329252,                0,    0.05235987756,99674.23248291016
61.3,      -0.27505268,       0.38310909,      -9.86260324,                0,                0,    0.05235987756,99673.55346679688
61.38,      -0.27505268,       0.37328578,      -9.86260324,                0,   -0.03490658504,    0.06981317008,99672.88208007812
61.47,      -0.26522937,       0.38310909,      -9.86260324,                0,   -0.01745329252,    0.06981317008,99672.21832275391
61.56,      -0.28487599,       0.36346247,      -9.86260324,                0,   -0.01745329252,    0.06981317008,99671.52404785156
61.61,       -0.2946993,       0.37328578,      -9.87242655,                0,   -0.01745329252,    0.06981317008,99670.86029052734
61.7,       -0.27505268,        0.38310909,-9.852779930000001,                 0,                 0,     0.06981317008, 99670.18890380859
61.78,      -0.28487599,       0.37328578,      -9.87242655,                0,   -0.01745329252,    0.05235987756,99669.50225830078
61.88,     -0.27505268,      0.35363916,     -9.86260324,   0.01745329252,  -0.01745329252,   0.05235987756,99668.8232421875
61.96,       -0.26522937,        0.37328578,-9.852779930000001,     0.01745329252,    -0.01745329252,      0.0872664626, 99668.15185546875
62.03,      -0.26522937,       0.38310909,      -9.86260324,    0.01745329252,   -0.01745329252,    0.06981317008,99667.45758056641
62.12,      -0.27505268,       0.36346247,      -9.87242655,                0,   -0.01745329252,    0.05235987756,99666.78619384766
62.21,       -0.28487599,        0.37328578,-9.852779930000001,                 0,                 0,     0.06981317008, 99666.10717773438
62.29,      -0.28487599,       0.37328578,      -9.86260324,                0,                0,    0.05235987756,99665.42816162109
62.34,      -0.27505268,       0.37328578,      -9.86260324,   -0.01745329252,                0,    0.06981317008,99664.75677490234
62.42,       -0.27505268,        0.37328578,-9.842956620000001,                 0,                 0,     0.06981317008, 99664.08538818359
62.49,       -0.27505268,        0.35363916,-9.842956620000001,    -0.01745329252,     0.01745329252,     0.05235987756, 99663.39874267578
62.56,       -0.28487599,        0.36346247,-9.842956620000001,    -0.01745329252,                 0,      0.0872664626, 99662.73498535156
62.64,       -0.27505268,        0.35363916,-9.852779930000001,                 0,                 0,      0.0872664626, 99662.04071044922
62.7,    -0.28487599,     0.37328578,    -9.86260324,              0,  0.01745329252,  0.05235987756,99661.376953125
62.79,       -0.28487599,        0.35363916,-9.833133310000001,                 0,                 0,     0.06981317008, 99660.69793701172
62.88,       -0.28487599,        0.36346247,-9.833133310000001,    -0.01745329252,     0.01745329252,     0.05235987756, 99660.01892089844
62.96,       -0.27505268,        0.37328578,-9.852779930000001,                 0,     0.01745329252,     0.06981317008, 99659.33227539062
63.05,      -0.28487599,       0.35363916,      -9.88224986,   -0.01745329252,                0,     0.0872664626,99658.64562988281
63.14,    -0.26522937,     0.38310909,    -9.86260324,              0,  0.01745329252,  0.06981317008,99657.958984375
63.21,       -0.28487599,        0.37328578,-9.842956620000001,                 0,                 0,     0.06981317008, 99657.29522705078
63.28,       -0.27505268,         0.3929324,-9.852779930000001,                 0,                 0,     0.06981317008, 99656.60095214844
63.37,       -0.27505268,        0.37328578,-9.852779930000001,                 0,     0.03490658504,     0.06981317008, 99655.92956542969
63.45,       -0.28487599,        0.36346247,-9.852779930000001,                 0,     0.03490658504,     0.06981317008, 99655.24291992188
63.53,       -0.28487599,        0.36346247,-9.842956620000001,                 0,     0.01745329252,     0.05235987756, 99654.57153320312
63.62,       -0.28487599,        0.38310909,-9.852779930000001,                 0,     0.01745329252,     0.05235987756, 99653.88488769531
63.71,     -0.28487599,      0.38310909,     -9.86260324,               0,   0.01745329252,   0.06981317008,99653.1982421875
63.8,       -0.27505268,        0.37328578,-9.852779930000001,                 0,                 0,     0.05235987756, 99652.52685546875
63.89,       -0.26522937,        0.36346247,-9.842956620000001,                 0,     0.01745329252,     0.05235987756, 99651.84020996094
63.99,       -0.28487599,         0.3929324,-9.833133310000001,                 0,     0.01745329252,     0.06981317008, 99651.15356445312
64.06,       -0.27505268,        0.38310909,-9.842956620000001,                 0,                 0,     0.06981317008, 99650.46691894531
64.11,       -0.27505268,        0.37328578,-9.833133310000001,                 0,                 0,     0.06981317008, 99649.78790283203
64.21,       -0.27505268,        0.35363916,-9.852779930000001,    -0.01745329252,     0.01745329252,     0.03490658504, 99649.10888671875
64.28,       -0.27505268,        0.35363916,-9.823309999999999,                 0,                 0,     0.06981317008, 99648.42987060547
64.37,       -0.27505268,        0.37328578,-9.842956620000001,                 0,                 0,     0.06981317008, 99647.74322509766
64.48,       -0.26522937,        0.37328578,-9.823309999999999,                 0,                 0,     0.06981317008, 99647.05657958984
64.58,       -0.26522937,        0.37328578,-9.842956620000001,                 0,     0.01745329252,     0.05235987756,  99646.3623046875
64.63,       -0.28487599,        0.37328578,-9.852779930000001,                 0,                 0,     0.05235987756, 99645.69854736328
64.73,       -0.27505268,        0.36346247,-9.842956620000001,                 0,                 0,     0.06981317008, 99644.99664306641
64.83,        -0.2946993,        0.36346247,-9.852779930000001,                 0,                 0,     0.05235987756, 99644.32525634766
64.93,       -0.28487599,        0.37328578,-9.833133310000001,    -0.01745329252,                 0,     0.06981317008, 99643.63861083984
64.99,       -0.2946993,       0.37328578,      -9.86260324,                0,                0,    0.06981317008,99642.95196533203
65.09,        -0.2946993,        0.38310909,-9.842956620000001,                 0,                 0,     0.06981317008, 99642.27294921875
65.19,       -0.26522937,        0.36346247,-9.842956620000001,                 0,    -0.01745329252,     0.06981317008, 99641.58630371094
65.27,       -0.26522937,        0.37328578,-9.842956620000001,                 0,    -0.01745329252,     0.06981317008, 99640.89965820312
65.32,       -0.28487599,        0.36346247,-9.833133310000001,     0.01745329252,                 0,     0.05235987756, 99640.21301269531
65.43,       -0.28487599,        0.37328578,-9.842956620000001,                 0,    -0.01745329252,     0.05235987756, 99639.54162597656
65.49,       -0.28487599,        0.38310909,-9.852779930000001,                 0,    -0.01745329252,     0.06981317008, 99638.85498046875
65.59,       -0.25540606,        0.36346247,-9.842956620000001,                 0,    -0.01745329252,      0.0872664626, 99638.16833496094
65.66,       -0.27505268,         0.3929324,-9.852779930000001,    -0.01745329252,    -0.01745329252,     0.05235987756, 99637.48168945312
65.73,        -0.2946993,        0.37328578,-9.852779930000001,                 0,    -0.01745329252,     0.05235987756, 99636.79504394531
65.83,      -0.28487599,       0.36346247,      -9.86260324,                0,   -0.01745329252,    0.06981317008,99636.10076904297
65.9,       -0.26522937,        0.38310909,-9.852779930000001,                 0,                 0,     0.05235987756, 99635.42175292969
66.01,       -0.26522937,        0.35363916,-9.852779930000001,                 0,    -0.01745329252,     0.06981317008, 99634.73510742188
66.04,       -0.28487599,        0.37328578,-9.842956620000001,     0.01745329252,                 0,     0.06981317008, 99634.04846191406
66.14,      -0.30452261,       0.35363916,      -9.86260324,                0,   -0.01745329252,    0.05235987756,99633.35418701172
66.22,      -0.27505268,       0.37328578,      -9.87242655,                0,   -0.01745329252,    0.06981317008,99632.65991210938
66.32,       -0.30452261,        0.37328578,-9.852779930000001,                 0,    -0.01745329252,     0.05235987756, 99631.96563720703
66.4,      -0.27505268,       0.37328578,      -9.87242655,    0.01745329252,   -0.01745329252,    0.06981317008,99631.28662109375
66.49,      -0.27505268,       0.35363916,      -9.87242655,    0.01745329252,   -0.01745329252,     0.0872664626,99630.59234619141
66.59,      -0.27505268,       0.37328578,      -9.86260324,                0,   -0.01745329252,    0.05235987756,99629.91333007812
66.66,      -0.25540606,       0.37328578,      -9.86260324,                0,   -0.03490658504,    0.05235987756,99629.22668457031
66.74,       -0.27505268,        0.37328578,-9.852779930000001,     0.03490658504,                 0,     0.06981317008, 99628.53240966797
66.83,      -0.28487599,       0.38310909,      -9.87242655,    0.03490658504,                0,    0.06981317008,99627.84576416016
66.9,      -0.27505268,       0.36346247,      -9.86260324,                0,   -0.01745329252,    0.06981317008,99627.15148925781
66.98,      -0.26522937,       0.38310909,      -9.87242655,    0.01745329252,   -0.03490658504,    0.05235987756,99626.48010253906
67.07,       -0.2946993,       0.36346247,      -9.86260324,    0.01745329252,   -0.03490658504,    0.06981317008,99625.76293945312
67.16,      -0.28487599,       0.37328578,      -9.87242655,    0.03490658504,   -0.01745329252,     0.0872664626,99625.08392333984
67.25,      -0.27505268,       0.38310909,      -9.86260324,                0,                0,    0.06981317008,99624.38201904297
67.34,      -0.28487599,       0.37328578,      -9.87242655,    0.01745329252,   -0.01745329252,     0.0872664626,99623.68774414062
67.42,      -0.27505268,       0.36346247,      -9.86260324,    0.03490658504,   -0.01745329252,    0.06981317008,99623.00109863281
67.5,      -0.27505268,       0.36346247,      -9.89207317,    0.01745329252,                0,    0.05235987756,99622.30682373047
67.57,      -0.28487599,       0.36346247,      -9.86260324,    0.01745329252,                0,    0.06981317008,99621.61254882812
67.61,      -0.27505268,       0.36346247,      -9.86260324,    0.01745329252,   -0.01745329252,    0.06981317008,99620.89538574219
67.69,      -0.27505268,       0.37328578,      -9.87242655,    0.01745329252,                0,    0.06981317008,99620.21636962891
67.74,      -0.27505268,       0.38310909,      -9.88224986,    0.01745329252,                0,    0.06981317008,99619.52209472656
67.78,      -0.27505268,       0.36346247,      -9.88224986,    0.03490658504,                0,    0.06981317008,99618.84307861328
67.87,      -0.27505268,       0.37328578,      -9.87242655,    0.05235987756,   -0.01745329252,    0.06981317008,99618.13354492188
67.98,    -0.28487599,     0.37328578,    -9.88224986,  0.03490658504, -0.01745329252,  0.06981317008,99617.431640625
68.03,      -0.27505268,       0.38310909,      -9.89207317,    0.01745329252,                0,    0.05235987756,99616.73736572266
68.13,      -0.27505268,       0.37328578,      -9.88224986,    0.03490658504,                0,    0.06981317008,99616.02783203125
68.23,      -0.27505268,       0.35363916,      -9.88224986,    0.05235987756,                0,    0.05235987756,99615.33355712891
68.3,       -0.2946993,       0.37328578,      -9.87242655,    0.01745329252,   -0.01745329252,     0.0872664626,99614.63165283203
68.39,      -0.27505268,       0.36346247,      -9.87242655,                0,   -0.01745329252,    0.05235987756,99613.93737792969
68.45,       -0.2946993,       0.36346247,      -9.86260324,    0.01745329252,                0,    0.06981317008,99613.24310302734
68.55,      -0.30452261,       0.36346247,      -9.87242655,                0,                0,    0.05235987756,99612.54119873047
68.64,      -0.27505268,       0.38310909,      -9.87242655,                0,                0,    0.06981317008,99611.84692382812
68.74,      -0.28487599,       0.38310909,      -9.86260324,                0,                0,     0.0872664626,99611.13739013672
68.82,      -0.28487599,       0.36346247,      -9.87242655,                0,                0,     0.0872664626,99610.44311523438
68.9,     -0.28487599,      0.36346247,     -9.86260324,               0,   0.01745329252,    0.0872664626,99609.7412109375
68.99,      -0.28487599,       0.38310909,      -9.88224986,                0,                0,    0.06981317008,99609.04693603516
69.07,       -0.2946993,       0.37328578,      -9.86260324,   -0.01745329252,    0.01745329252,    0.06981317008,99608.33740234375
69.15,      -0.27505268,       0.34381585,      -9.87242655,                0,                0,    0.05235987756,99607.62023925781
69.24,      -0.28487599,       0.37328578,      -9.86260324,   -0.01745329252,    0.03490658504,    0.06981317008,99606.90307617188
69.32,       -0.28487599,        0.36346247,-9.833133310000001,    -0.01745329252,     0.01745329252,      0.0872664626, 99606.21643066406
69.38,       -0.28487599,        0.37328578,-9.842956620000001,    -0.01745329252,     0.01745329252,     0.05235987756, 99605.51452636719
69.46,      -0.28487599,       0.38310909,      -9.87242655,   -0.03490658504,                0,    0.06981317008,99604.81262207031
69.54,       -0.24558275,        0.38310909,-9.842956620000001,    -0.03490658504,     0.01745329252,     0.06981317008, 99604.10308837891
69.63,      -0.27505268,       0.36346247,      -9.87242655,   -0.05235987756,    0.01745329252,    0.06981317008,99603.40118408203
69.71,       -0.27505268,        0.37328578,-9.833133310000001,    -0.03490658504,     0.01745329252,     0.06981317008, 99602.70690917969
69.8,      -0.27505268,       0.36346247,      -9.87242655,   -0.01745329252,    0.01745329252,     0.0872664626,99601.97448730469
69.88,      -0.28487599,       0.36346247,      -9.86260324,   -0.01745329252,    0.01745329252,    0.06981317008,99601.27258300781
69.95,      -0.28487599,       0.37328578,      -9.86260324,                0,    0.01745329252,    0.06981317008,99600.55541992188
70.04,       -0.27505268,        0.37328578,-9.852779930000001,                 0,     0.01745329252,     0.06981317008, 99599.86114501953
70.1,      -0.28487599,       0.38310909,      -9.86260324,   -0.01745329252,    0.01745329252,    0.06981317008,99599.14398193359
